,timestamp,experiment_ID,block_ID,stimulus_ID,subject,key_press,rt,fake_human_rt,trial_stim,fake_or_not,UNIX_time,wrong_type
0,2023-04-13_10h07.47.203,0413_01,1,1,1,p,0.2921,none,BR,False,1681351667.2032,none
1,2023-04-13_10h07.49.570,0413_01,1,2,1,p,0.269,none,BL,False,1681351669.5703,none
2,2023-04-13_10h07.52.170,0413_01,1,3,2,w,0.4941,none,YR,False,1681351672.1703,none
3,2023-04-13_10h07.54.553,0413_01,1,4,1,p,0.2779,none,BL,False,1681351674.5535,none
4,2023-04-13_10h07.56.936,0413_01,1,5,1,p,0.2865,none,BR,False,1681351676.9369,none
5,2023-04-13_10h07.59.487,0413_01,1,6,2,w,0.4555,none,YL,False,1681351679.487,none
6,2023-04-13_10h08.02.087,0413_01,1,7,2,w,0.4972,none,YL,False,1681351682.0875,none
7,2023-04-13_10h08.04.753,0413_01,1,8,2,w,0.5775,none,YL,False,1681351684.7534,none
8,2023-04-13_10h08.07.336,0413_01,1,9,2,w,0.4788,none,YL,False,1681351687.3366,none
9,2023-04-13_10h08.09.953,0413_01,1,10,2,w,0.5198,none,YR,False,1681351689.9539,none
10,2023-04-13_10h08.12.453,0413_01,1,11,1,p,0.3986,none,BL,False,1681351692.4531,none
11,2023-04-13_10h08.14.869,0413_01,1,12,1,p,0.3149,none,BR,False,1681351694.8693,none
12,2023-04-13_10h08.17.569,0413_01,1,13,2,w,0.61,none,YR,False,1681351697.5699,none
13,2023-04-13_10h08.19.970,0413_01,1,14,1,p,0.3018,none,BL,False,1681351699.9709,none
14,2023-04-13_10h08.22.436,0413_01,1,15,1,p,0.374,none,BR,False,1681351702.4368,none
15,2023-04-13_10h08.24.970,0413_01,1,16,2,w,0.4274,none,YR,False,1681351704.9704,none
16,2023-04-13_10h08.59.386,0413_01,2,1,1,p,0.359,none,BL,False,1681351739.3868,none
17,2023-04-13_10h09.01.754,0413_01,2,2,1,p,0.2772,none,BL,False,1681351741.7543,none
18,2023-04-13_10h09.04.520,0413_01,2,3,2,w,0.6708,none,YL,False,1681351744.5201,none
19,2023-04-13_10h09.07.104,0413_01,2,4,2,w,0.4797,none,YR,False,1681351747.104,none
20,2023-04-13_10h09.09.555,0413_01,2,5,1,p,0.3448,none,BL,False,1681351749.555,none
21,2023-04-13_10h09.11.936,0413_01,2,6,1,p,0.2782,none,BR,False,1681351751.9364,none
22,2023-04-13_10h09.14.536,0413_01,2,7,2,w,0.503,none,YL,False,1681351754.5368,none
23,2023-04-13_10h09.17.186,0413_01,2,8,2,w,0.5594,none,YL,False,1681351757.1863,none
24,2023-04-13_10h09.19.554,0413_01,2,9,1,p,0.2772,none,BR,False,1681351759.5542,none
25,2023-04-13_10h09.22.070,0413_01,2,10,2,w,0.4144,none,YR,False,1681351762.0706,none
26,2023-04-13_10h09.24.488,0413_01,2,11,1,p,0.3141,none,BR,False,1681351764.4887,none
27,2023-04-13_10h09.27.070,0413_01,2,12,1,p,0.4889,none,BL,False,1681351767.071,none
28,2023-04-13_10h09.29.437,0413_01,2,13,1,p,0.2731,none,BR,False,1681351769.4375,none
29,2023-04-13_10h09.32.004,0413_01,2,14,2,w,0.4754,none,YR,False,1681351772.0048,none
30,2023-04-13_10h09.34.603,0413_01,2,15,2,w,0.4839,none,YL,False,1681351774.6037,none
31,2023-04-13_10h09.37.237,0413_01,2,16,2,w,0.5404,none,YR,False,1681351777.2371,none
32,2023-04-13_10h10.16.054,0413_01,3,1,2,w,0.3689,0.8554,YR,True,1681351816.0543,none
33,2023-04-13_10h10.19.020,0413_01,3,2,2,w,0.4103,0.8554,YR,True,1681351819.0203,none
34,2023-04-13_10h10.21.986,0413_01,3,3,2,w,0.4595,0.8554,YL,True,1681351821.9865,none
35,2023-04-13_10h10.24.387,0413_01,3,4,1,p,0.3087,none,BL,False,1681351824.3871,none
36,2023-04-13_10h10.26.770,0413_01,3,5,1,p,0.2933,none,BL,False,1681351826.7709,none
37,2023-04-13_10h10.29.154,0413_01,3,6,1,p,0.2933,none,BR,False,1681351829.1543,none
38,2023-04-13_10h10.31.587,0413_01,3,7,1,p,0.3343,none,BR,False,1681351831.5876,none
39,2023-04-13_10h10.34.553,0413_01,3,8,2,w,0.5888,0.8554,YR,True,1681351834.5538,none
40,2023-04-13_10h10.37.520,0413_01,3,9,2,w,0.486,0.8554,YR,True,1681351837.5203,none
41,2023-04-13_10h10.40.487,0413_01,3,10,2,w,0.5188,0.8554,YL,True,1681351840.4878,none
42,2023-04-13_10h10.42.937,0413_01,3,11,1,p,0.3531,none,BR,False,1681351842.9374,none
43,2023-04-13_10h10.45.904,0413_01,3,12,2,w,0.399,0.8554,YL,True,1681351845.9047,none
44,2023-04-13_10h10.48.871,0413_01,3,13,2,w,0.5043,0.8554,YL,True,1681351848.871,none
45,2023-04-13_10h10.51.287,0413_01,3,14,1,p,0.322,none,BL,False,1681351851.2876,none
46,2023-04-13_10h10.53.704,0413_01,3,15,1,p,0.3129,none,BR,False,1681351853.7044,none
47,2023-04-13_10h10.56.054,0413_01,3,16,1,p,0.2566,none,BL,False,1681351856.0545,none
48,2023-04-13_10h11.34.270,0413_01,4,1,2,w,0.3912,0.8255,YR,True,1681351894.2707,none
49,2023-04-13_10h11.36.904,0413_01,4,2,1,p,0.5373,none,BL,False,1681351896.9041,none
50,2023-04-13_10h11.39.570,0413_01,4,3,1,p,0.568,none,BR,False,1681351899.5701,none
51,2023-04-13_10h11.42.503,0413_01,4,4,2,w,0.542,0.8314,YR,True,1681351902.5035,none
52,2023-04-13_10h11.44.970,0413_01,4,5,1,p,0.3675,none,BR,False,1681351904.9704,none
53,2023-04-13_10h11.47.371,0413_01,4,6,1,p,0.3094,none,BR,False,1681351907.3714,none
54,2023-04-13_10h11.49.771,0413_01,4,7,1,p,0.3013,none,BL,False,1681351909.7717,none
55,2023-04-13_10h11.52.187,0413_01,4,8,1,p,0.3011,none,BR,False,1681351912.1872,none
56,2023-04-13_10h11.55.120,0413_01,4,9,2,w,0.5566,0.8271,YR,True,1681351915.1209,none
57,2023-04-13_10h11.58.070,0413_01,4,10,2,w,0.4953,0.833,YL,True,1681351918.0703,none
58,2023-04-13_10h12.01.020,0413_01,4,11,2,w,0.3688,0.8312,YL,True,1681351921.021,none
59,2023-04-13_10h12.03.470,0413_01,4,12,1,p,0.3554,none,BL,False,1681351923.4704,none
60,2023-04-13_10h12.06.420,0413_01,4,13,2,w,0.5776,0.8319,YL,True,1681351926.4209,none
61,2023-04-13_10h12.08.820,0413_01,4,14,1,p,0.2992,none,BL,False,1681351928.82,none
62,2023-04-13_10h12.11.753,0413_01,4,15,2,w,0.4271,0.8256,YL,True,1681351931.7539,none
63,2023-04-13_10h12.14.687,0413_01,4,16,2,w,0.3574,0.821,YR,True,1681351934.687,none
64,2023-04-13_10h12.51.737,0413_01,5,1,2,w,0.3313,0.8026,YR,True,1681351971.7372,none
65,2023-04-13_10h12.54.203,0413_01,5,2,1,p,0.3667,none,BL,False,1681351974.2037,none
66,2023-04-13_10h12.56.587,0413_01,5,3,1,p,0.2836,none,BL,False,1681351976.5879,none
67,2023-04-13_10h12.59.054,0413_01,5,4,1,p,0.3724,none,BL,False,1681351979.0546,none
68,2023-04-13_10h13.01.970,0413_01,5,5,2,w,0.5219,0.7994,YR,True,1681351981.971,none
69,2023-04-13_10h13.04.471,0413_01,5,6,1,p,0.397,none,BR,False,1681351984.4711,none
70,2023-04-13_10h13.07.404,0413_01,5,7,2,w,0.4819,0.8096,YR,True,1681351987.4044,none
71,2023-04-13_10h13.10.320,0413_01,5,8,2,w,0.4282,0.7916,YL,True,1681351990.3209,none
72,2023-04-13_10h13.13.220,0413_01,5,9,2,w,0.3585,0.7897,YR,True,1681351993.2206,none
73,2023-04-13_10h13.15.787,0413_01,5,10,1,p,0.467,none,BL,False,1681351995.7875,none
74,2023-04-13_10h13.18.687,0413_01,5,11,2,w,0.4045,0.797,YL,True,1681351998.6875,none
75,2023-04-13_10h13.21.588,0413_01,5,12,2,w,0.3761,0.7976,YL,True,1681352001.5883,none
76,2023-04-13_10h13.24.054,0413_01,5,13,1,p,0.3722,none,BR,False,1681352004.0547,none
77,2023-04-13_10h13.26.970,0413_01,5,14,2,w,0.4259,0.8028,YL,True,1681352006.9708,none
78,2023-04-13_10h13.29.355,0413_01,5,15,1,p,0.2852,none,BR,False,1681352009.3551,none
79,2023-04-13_10h13.31.837,0413_01,5,16,1,p,0.3818,none,BR,False,1681352011.8378,none
80,2023-04-13_10h14.22.604,0413_01,6,1,1,p,0.2743,none,BR,False,1681352062.6043,none
81,2023-04-13_10h14.25.004,0413_01,6,2,1,p,0.2998,none,BL,False,1681352065.0045,none
82,2023-04-13_10h14.27.887,0413_01,6,3,2,w,0.5793,0.7603,YR,True,1681352067.8873,none
83,2023-04-13_10h14.30.288,0413_01,6,4,1,p,0.2962,none,BL,False,1681352070.2885,none
84,2023-04-13_10h14.32.755,0413_01,6,5,1,p,0.3761,none,BR,False,1681352072.7554,none
85,2023-04-13_10h14.35.637,0413_01,6,6,2,w,0.4297,0.7583,YR,True,1681352075.638,none
86,2023-04-13_10h14.38.054,0413_01,6,7,1,p,0.3222,none,BR,False,1681352078.0549,none
87,2023-04-13_10h14.40.921,0413_01,6,8,2,w,0.5377,0.7609,YR,True,1681352080.9216,none
88,2023-04-13_10h14.43.289,0413_01,6,9,1,p,0.2634,none,BR,False,1681352083.2893,none
89,2023-04-13_10h14.46.154,0413_01,6,10,2,w,0.3605,0.7629,YL,True,1681352086.1541,none
90,2023-04-13_10h14.48.655,0413_01,6,11,1,p,0.3983,none,BL,False,1681352088.6553,none
91,2023-04-13_10h14.51.538,0413_01,6,12,2,w,0.4256,0.7842,YL,True,1681352091.5382,none
92,2023-04-13_10h14.54.421,0413_01,6,13,2,w,0.4706,0.7685,YR,True,1681352094.4211,none
93,2023-04-13_10h14.57.304,0413_01,6,14,2,w,0.4989,0.7678,YL,True,1681352097.3049,none
94,2023-04-13_10h14.59.704,0413_01,6,15,1,p,0.3035,none,BL,False,1681352099.7047,none
95,2023-04-13_10h15.02.604,0413_01,6,16,2,w,0.5113,0.7736,YL,True,1681352102.6041,none
96,2023-04-13_10h15.34.754,0413_01,7,1,1,p,0.2924,none,BR,False,1681352134.7541,none
97,2023-04-13_10h15.37.505,0413_01,7,2,2,w,0.6456,none,YL,False,1681352137.5054,none
98,2023-04-13_10h15.39.887,0413_01,7,3,1,p,0.2874,none,BL,False,1681352139.8877,none
99,2023-04-13_10h15.42.354,0413_01,7,4,2,w,0.3764,none,YR,False,1681352142.3547,none
100,2023-04-13_10h15.44.688,0413_01,7,5,1,p,0.2297,none,BR,False,1681352144.6882,none
101,2023-04-13_10h15.47.370,0413_01,7,6,2,w,0.5834,none,YR,False,1681352147.3705,none
102,2023-04-13_10h15.49.937,0413_01,7,7,2,w,0.4759,none,YL,False,1681352149.9374,none
103,2023-04-13_10h15.52.304,0413_01,7,8,1,p,0.2621,none,BR,False,1681352152.305,none
104,2023-04-13_10h15.54.854,0413_01,7,9,2,w,0.4561,none,YR,False,1681352154.8543,none
105,2023-04-13_10h15.57.355,0413_01,7,10,2,w,0.4095,none,YR,False,1681352157.3551,none
106,2023-04-13_10h15.59.738,0413_01,7,11,1,p,0.286,none,BL,False,1681352159.7383,none
107,2023-04-13_10h16.02.088,0413_01,7,12,1,p,0.2463,none,BL,False,1681352162.0884,none
108,2023-04-13_10h16.04.904,0413_01,7,13,2,w,0.7199,none,YL,False,1681352164.9048,none
109,2023-04-13_10h16.07.254,0413_01,7,14,1,p,0.2474,none,BR,False,1681352167.2547,none
110,2023-04-13_10h16.09.904,0413_01,7,15,1,p,0.5536,none,BL,False,1681352169.9048,none
111,2023-04-13_10h16.12.554,0413_01,7,16,2,w,0.5518,none,YL,False,1681352172.5549,none
112,2023-04-13_10h16.48.120,0413_01,8,1,1,p,0.278,none,BR,False,1681352208.1207,none
113,2023-04-13_10h16.50.987,0413_01,8,2,2,w,0.4543,0.7487,YL,True,1681352210.9875,none
114,2023-04-13_10h16.53.371,0413_01,8,3,1,p,0.2925,none,BL,False,1681352213.3715,none
115,2023-04-13_10h16.56.238,0413_01,8,4,2,w,0.4684,0.7455,YR,True,1681352216.2384,none
116,2023-04-13_10h16.59.121,0413_01,8,5,2,w,0.4021,0.766,YR,True,1681352219.1217,none
117,2023-04-13_10h17.01.987,0413_01,8,6,2,w,0.3265,0.7561,YL,True,1681352221.9879,none
118,2023-04-13_10h17.04.338,0413_01,8,7,1,p,0.2517,none,BL,False,1681352224.3381,none
119,2023-04-13_10h17.06.772,0413_01,8,8,1,p,0.3341,none,BL,False,1681352226.7728,none
120,2023-04-13_10h17.09.637,0413_01,8,9,2,w,0.4358,0.7448,YR,True,1681352229.6379,none
121,2023-04-13_10h17.12.505,0413_01,8,10,2,w,0.6821,0.7429,YL,True,1681352232.5058,none
122,2023-04-13_10h17.14.970,0413_01,8,11,1,p,0.3752,none,BR,False,1681352234.9708,none
123,2023-04-13_10h17.17.305,0413_01,8,12,1,p,0.2286,none,BR,False,1681352237.3055,none
124,2023-04-13_10h17.20.121,0413_01,8,13,2,w,0.3428,0.7189,YL,True,1681352240.1218,none
125,2023-04-13_10h17.22.488,0413_01,8,14,1,p,0.2627,none,BR,False,1681352242.4891,none
126,2023-04-13_10h17.24.887,0413_01,8,15,1,p,0.296,none,BL,False,1681352244.8879,none
127,2023-04-13_10h17.27.755,0413_01,8,16,2,w,0.3028,0.7562,YR,True,1681352247.7554,none
128,2023-04-13_10h18.04.705,0413_01,9,1,2,w,0.4075,0.6946,YL,True,1681352284.7054,none
129,2023-04-13_10h18.07.522,0413_01,9,2,2,w,0.3594,0.7028,YL,True,1681352287.5221,none
130,2023-04-13_10h18.09.871,0413_01,9,3,1,p,0.2547,none,BR,False,1681352289.8718,none
131,2023-04-13_10h18.12.671,0413_01,9,4,2,w,0.3686,0.6844,YL,True,1681352292.6719,none
132,2023-04-13_10h18.15.071,0413_01,9,5,1,p,0.2965,none,BL,False,1681352295.072,none
133,2023-04-13_10h18.17.871,0413_01,9,6,2,w,0.408,0.6958,YL,True,1681352297.8712,none
134,2023-04-13_10h18.20.722,0413_01,9,7,2,w,0.4167,0.7353,YR,True,1681352300.7222,none
135,2023-04-13_10h18.23.521,0413_01,9,8,2,w,0.5027,0.6918,YR,True,1681352303.5219,none
136,2023-04-13_10h18.25.871,0413_01,9,9,1,p,0.255,none,BL,False,1681352305.8718,none
137,2023-04-13_10h18.28.389,0413_01,9,10,1,p,0.4155,none,BR,False,1681352308.389,none
138,2023-04-13_10h18.31.188,0413_01,9,11,2,w,0.4198,0.6802,YR,True,1681352311.1887,none
139,2023-04-13_10h18.33.738,0413_01,9,12,1,p,0.4596,none,BR,False,1681352313.7384,none
140,2023-04-13_10h18.36.205,0413_01,9,13,1,p,0.3657,none,BR,False,1681352316.2053,none
141,2023-04-13_10h18.38.589,0413_01,9,14,1,p,0.291,none,BL,False,1681352318.5891,none
142,2023-04-13_10h18.40.955,0413_01,9,15,1,p,0.2761,none,BL,False,1681352320.9554,none
143,2023-04-13_10h18.43.788,0413_01,9,16,2,w,0.4296,0.7199,YR,True,1681352323.7888,none
144,2023-04-13_10h19.17.271,0413_01,10,1,2,w,0.3539,0.7215,YL,True,1681352357.2714,none
145,2023-04-13_10h19.20.037,0413_01,10,2,2,w,0.5437,0.6466,YR,True,1681352360.038,none
146,2023-04-13_10h19.22.871,0413_01,10,3,2,w,0.4093,0.7194,YL,True,1681352362.8718,none
147,2023-04-13_10h19.25.321,0413_01,10,4,1,p,0.3524,none,BL,False,1681352365.3218,none
148,2023-04-13_10h19.27.738,0413_01,10,5,1,p,0.3261,none,BR,False,1681352367.7385,none
149,2023-04-13_10h19.30.238,0413_01,10,6,1,p,0.3976,none,BR,False,1681352370.2383,none
150,2023-04-13_10h19.32.606,0413_01,10,7,1,p,0.2661,none,BR,False,1681352372.6061,none
151,2023-04-13_10h19.35.405,0413_01,10,8,2,w,0.3943,0.6651,YL,True,1681352375.4052,none
152,2023-04-13_10h19.38.188,0413_01,10,9,2,w,0.5711,0.6724,YR,True,1681352378.1889,none
153,2023-04-13_10h19.40.554,0413_01,10,10,1,p,0.2679,none,BL,False,1681352380.5554,none
154,2023-04-13_10h19.43.338,0413_01,10,11,2,w,0.4532,0.671,YL,True,1681352383.3382,none
155,2023-04-13_10h19.46.121,0413_01,10,12,2,w,0.6456,0.6564,YR,True,1681352386.1215,none
156,2023-04-13_10h19.48.954,0413_01,10,13,2,w,0.5183,0.7217,YR,True,1681352388.9549,none
157,2023-04-13_10h19.51.305,0413_01,10,14,1,p,0.245,none,BL,False,1681352391.3059,none
158,2023-04-13_10h19.53.722,0413_01,10,15,1,p,0.3265,none,BL,False,1681352393.7221,none
159,2023-04-13_10h19.56.105,0413_01,10,16,1,p,0.2935,none,BR,False,1681352396.1059,none
160,2023-04-13_10h20.37.155,0413_01,11,1,2,w,0.4751,0.6524,YL,True,1681352437.1554,none
161,2023-04-13_10h20.39.555,0413_01,11,2,1,p,0.3007,none,BL,False,1681352439.5556,none
162,2023-04-13_10h20.42.322,0413_01,11,3,2,w,0.5009,0.6601,YR,True,1681352442.3228,none
163,2023-04-13_10h20.44.638,0413_01,11,4,1,p,0.2222,none,BL,False,1681352444.6389,none
164,2023-04-13_10h20.47.023,0413_01,11,5,1,p,0.2899,none,BR,False,1681352447.0234,none
165,2023-04-13_10h20.49.389,0413_01,11,6,1,p,0.2573,none,BL,False,1681352449.3894,none
166,2023-04-13_10h20.52.205,0413_01,11,7,2,w,0.3954,0.6906,YR,True,1681352452.2057,none
167,2023-04-13_10h20.54.988,0413_01,11,8,2,w,0.4344,0.6643,YL,True,1681352454.9889,none
168,2023-04-13_10h20.57.722,0413_01,11,9,2,w,0.5076,0.6251,YR,True,1681352457.7224,none
169,2023-04-13_10h21.00.222,0413_01,11,10,1,p,0.4059,none,BR,False,1681352460.2228,none
170,2023-04-13_10h21.02.605,0413_01,11,11,1,p,0.2819,none,BR,False,1681352462.6054,none
171,2023-04-13_10h21.05.388,0413_01,11,12,2,w,0.4025,0.6698,YL,True,1681352465.3887,none
172,2023-04-13_10h21.08.139,0413_01,11,13,2,w,0.5713,0.6419,YR,True,1681352468.139,none
173,2023-04-13_10h21.10.505,0413_01,11,14,1,p,0.2771,none,BR,False,1681352470.5056,none
174,2023-04-13_10h21.13.255,0413_01,11,15,2,w,0.4547,0.6353,YL,True,1681352473.2553,none
175,2023-04-13_10h21.15.621,0413_01,11,16,1,p,0.2644,none,BL,False,1681352475.6219,none
176,2023-04-13_10h21.51.871,0413_01,12,1,1,p,0.2791,none,BR,False,1681352511.8715,none
177,2023-04-13_10h21.54.505,0413_01,12,2,2,w,0.5357,none,YL,False,1681352514.5059,none
178,2023-04-13_10h21.56.839,0413_01,12,3,1,p,0.2384,none,BL,False,1681352516.8398,none
179,2023-04-13_10h21.59.356,0413_01,12,4,1,p,0.4084,none,BL,False,1681352519.3565,none
180,2023-04-13_10h22.01.723,0413_01,12,5,1,p,0.2766,none,BL,False,1681352521.7234,none
181,2023-04-13_10h22.04.272,0413_01,12,6,2,w,0.4536,none,YL,False,1681352524.2722,none
182,2023-04-13_10h22.06.722,0413_01,12,7,1,p,0.3518,none,BR,False,1681352526.7224,none
183,2023-04-13_10h22.09.406,0413_01,12,8,2,w,0.5651,none,YR,False,1681352529.4061,none
184,2023-04-13_10h22.11.788,0413_01,12,9,1,p,0.2897,none,BR,False,1681352531.7888,none
185,2023-04-13_10h22.14.405,0413_01,12,10,2,w,0.5231,none,YR,False,1681352534.4059,none
186,2023-04-13_10h22.16.739,0413_01,12,11,1,p,0.2344,none,BL,False,1681352536.7391,none
187,2023-04-13_10h22.19.322,0413_01,12,12,2,w,0.4927,none,YR,False,1681352539.3224,none
188,2023-04-13_10h22.21.805,0413_01,12,13,1,p,0.3896,none,BR,False,1681352541.8057,none
189,2023-04-13_10h22.24.289,0413_01,12,14,2,w,0.3868,none,YL,False,1681352544.2897,none
190,2023-04-13_10h22.26.872,0413_01,12,15,2,w,0.4871,none,YR,False,1681352546.8722,none
191,2023-04-13_10h22.29.522,0413_01,12,16,2,w,0.5514,none,YL,False,1681352549.5223,none
192,2023-04-13_10h23.07.672,0413_01,13,1,2,w,0.3264,0.6605,YR,True,1681352587.672,none
193,2023-04-13_10h23.10.106,0413_01,13,2,1,p,0.3431,none,BR,False,1681352590.1067,none
194,2023-04-13_10h23.12.506,0413_01,13,3,1,p,0.3022,none,BL,False,1681352592.5066,none
195,2023-04-13_10h23.15.222,0413_01,13,4,2,w,0.5745,0.6046,YR,True,1681352595.2227,none
196,2023-04-13_10h23.17.622,0413_01,13,5,1,p,0.2972,none,BR,False,1681352597.6229,none
197,2023-04-13_10h23.20.021,0413_01,13,6,1,p,0.2978,none,BL,False,1681352600.0218,none
198,2023-04-13_10h23.22.422,0413_01,13,7,1,p,0.3057,none,BR,False,1681352602.4228,none
199,2023-04-13_10h23.24.789,0413_01,13,8,1,p,0.2656,none,BL,False,1681352604.7892,none
200,2023-04-13_10h23.27.556,0413_01,13,9,2,w,0.498,0.6427,YL,True,1681352607.5564,none
201,2023-04-13_10h23.30.339,0413_01,13,10,2,w,0.54,0.676,YR,True,1681352610.3398,none
202,2023-04-13_10h23.33.106,0413_01,13,11,2,w,0.4526,0.6627,YR,True,1681352613.1061,none
203,2023-04-13_10h23.35.872,0413_01,13,12,2,w,0.5659,0.6473,YL,True,1681352615.8728,none
204,2023-04-13_10h23.38.621,0413_01,13,13,2,w,0.4309,0.6282,YL,True,1681352618.6219,none
205,2023-04-13_10h23.40.972,0413_01,13,14,1,p,0.2567,none,BL,False,1681352620.9739,none
206,2023-04-13_10h23.43.338,0413_01,13,15,1,p,0.2587,none,BR,False,1681352623.3385,none
207,2023-04-13_10h23.46.089,0413_01,13,16,2,w,0.3649,0.6328,YL,True,1681352626.0899,none
208,2023-04-13_10h24.20.022,0413_01,14,1,2,w,0.507,0.5653,YR,True,1681352660.0223,none
209,2023-04-13_10h24.22.372,0413_01,14,2,1,p,0.2577,none,BR,False,1681352662.3723,none
210,2023-04-13_10h24.24.939,0413_01,14,3,1,p,0.4673,none,BR,False,1681352664.94,none
211,2023-04-13_10h24.27.672,0413_01,14,4,2,w,0.6266,0.5743,YR,True,1681352667.672,none
212,2023-04-13_10h24.30.556,0413_01,14,5,2,w,0.7768,0.6435,YL,True,1681352670.5561,none
213,2023-04-13_10h24.32.938,0413_01,14,6,1,p,0.2843,none,BL,False,1681352672.9388,none
214,2023-04-13_10h24.35.705,0413_01,14,7,2,w,0.5009,0.6531,YL,True,1681352675.7055,none
215,2023-04-13_10h24.38.172,0413_01,14,8,1,p,0.3654,none,BL,False,1681352678.1727,none
216,2023-04-13_10h24.40.589,0413_01,14,9,1,p,0.3233,none,BR,False,1681352680.5902,none
217,2023-04-13_10h24.43.323,0413_01,14,10,2,w,0.4899,0.6276,YL,True,1681352683.3233,none
218,2023-04-13_10h24.45.789,0413_01,14,11,1,p,0.3657,none,BL,False,1681352685.7893,none
219,2023-04-13_10h24.48.173,0413_01,14,12,1,p,0.2825,none,BL,False,1681352688.1735,none
220,2023-04-13_10h24.50.905,0413_01,14,13,2,w,0.4912,0.6292,YR,True,1681352690.9059,none
221,2023-04-13_10h24.53.656,0413_01,14,14,2,w,0.6381,0.638,YR,True,1681352693.656,none
222,2023-04-13_10h24.56.089,0413_01,14,15,1,p,0.3282,none,BR,False,1681352696.0894,none
223,2023-04-13_10h24.58.822,0413_01,14,16,2,w,0.3665,0.6161,YL,True,1681352698.8223,none
224,2023-04-13_10h25.32.956,0413_01,15,1,1,p,0.2667,none,BL,False,1681352732.9565,none
225,2023-04-13_10h25.35.372,0413_01,15,2,1,p,0.3161,none,BR,False,1681352735.3722,none
226,2023-04-13_10h25.37.872,0413_01,15,3,2,w,0.403,none,YL,False,1681352737.8721,none
227,2023-04-13_10h25.40.256,0413_01,15,4,1,p,0.2872,none,BR,False,1681352740.2561,none
228,2023-04-13_10h25.42.905,0413_01,15,5,2,w,0.5599,none,YL,False,1681352742.9057,none
229,2023-04-13_10h25.45.422,0413_01,15,6,1,p,0.4215,none,BR,False,1681352745.4228,none
230,2023-04-13_10h25.47.806,0413_01,15,7,1,p,0.2885,none,BR,False,1681352747.8065,none
231,2023-04-13_10h25.50.489,0413_01,15,8,2,w,0.5857,none,YL,False,1681352750.4894,none
232,2023-04-13_10h25.53.206,0413_01,15,9,2,w,0.6143,none,YR,False,1681352753.2062,none
233,2023-04-13_10h25.55.755,0413_01,15,10,1,p,0.4579,none,BL,False,1681352755.7555,none
234,2023-04-13_10h25.58.190,0413_01,15,11,1,p,0.3315,none,BL,False,1681352758.1901,none
235,2023-04-13_10h26.00.756,0413_01,15,12,2,w,0.4662,none,YR,False,1681352760.7565,none
236,2023-04-13_10h26.03.189,0413_01,15,13,1,p,0.3395,none,BL,False,1681352763.1898,none
237,2023-04-13_10h26.05.906,0413_01,15,14,2,w,0.6267,none,YR,False,1681352765.9063,none
238,2023-04-13_10h26.08.456,0413_01,15,15,2,w,0.4543,none,YR,False,1681352768.4566,none
239,2023-04-13_10h26.11.022,0413_01,15,16,2,w,0.4637,none,YL,False,1681352771.0226,none
240,2023-04-13_10h26.52.972,0413_01,16,1,2,w,0.4284,0.5073,YL,True,1681352812.9727,none
241,2023-04-13_10h26.55.656,0413_01,16,2,2,w,0.4429,0.5849,YR,True,1681352815.6565,none
242,2023-04-13_10h26.58.023,0413_01,16,3,1,p,0.2718,none,BR,False,1681352818.0231,none
243,2023-04-13_10h27.00.689,0413_01,16,4,2,w,0.5525,0.5079,YR,True,1681352820.6898,none
244,2023-04-13_10h27.03.072,0413_01,16,5,1,p,0.2942,none,BL,False,1681352823.0725,none
245,2023-04-13_10h27.05.539,0413_01,16,6,1,p,0.375,none,BL,False,1681352825.5399,none
246,2023-04-13_10h27.08.290,0413_01,16,7,2,w,0.5154,0.6278,YL,True,1681352828.29,none
247,2023-04-13_10h27.10.972,0413_01,16,8,2,w,0.5257,0.5673,YR,True,1681352830.973,none
248,2023-04-13_10h27.13.456,0413_01,16,9,1,p,0.3867,none,BR,False,1681352833.4562,none
249,2023-04-13_10h27.16.089,0413_01,16,10,1,p,0.5279,none,BL,False,1681352836.0898,none
250,2023-04-13_10h27.18.789,0413_01,16,11,2,w,0.4783,0.5868,YL,True,1681352838.7897,none
251,2023-04-13_10h27.21.239,0413_01,16,12,1,p,0.3542,none,BR,False,1681352841.2395,none
252,2023-04-13_10h27.23.673,0413_01,16,13,1,p,0.3286,none,BR,False,1681352843.6732,none
253,2023-04-13_10h27.26.406,0413_01,16,14,2,w,0.511,0.6192,YL,True,1681352846.4064,none
254,2023-04-13_10h27.29.139,0413_01,16,15,2,w,0.4897,0.6308,YR,True,1681352849.1392,none
255,2023-04-13_10h27.31.539,0413_01,16,16,1,p,0.3004,none,BL,False,1681352851.54,none
256,2023-04-13_10h28.06.456,0413_01,17,1,2,w,0.4107,0.5694,YL,True,1681352886.4569,none
257,2023-04-13_10h28.09.173,0413_01,17,2,2,w,0.597,0.5315,YL,True,1681352889.1732,none
258,2023-04-13_10h28.11.756,0413_01,17,3,2,w,0.4267,0.4769,YR,True,1681352891.7562,none
259,2023-04-13_10h28.14.456,0413_01,17,4,2,w,0.5316,0.5904,YL,True,1681352894.457,none
260,2023-04-13_10h28.17.090,0413_01,17,5,2,w,0.5192,0.5245,YL,True,1681352897.0908,none
261,2023-04-13_10h28.19.573,0413_01,17,6,1,p,0.3901,none,BR,False,1681352899.5737,none
262,2023-04-13_10h28.22.024,0413_01,17,7,1,p,0.355,none,BL,False,1681352902.0243,none
263,2023-04-13_10h28.24.724,0413_01,17,8,2,w,0.504,0.5715,YR,True,1681352904.7243,none
264,2023-04-13_10h28.27.089,0413_01,17,9,1,p,0.2687,none,BR,False,1681352907.0894,none
265,2023-04-13_10h28.29.540,0413_01,17,10,1,p,0.3497,none,BL,False,1681352909.5408,none
266,2023-04-13_10h28.32.074,0413_01,17,11,1,p,0.428,none,BR,False,1681352912.0743,none
267,2023-04-13_10h28.34.774,0413_01,17,12,2,w,0.5825,0.4925,YR,True,1681352914.7741,none
268,2023-04-13_10h28.37.222,0413_01,17,13,1,p,0.3549,none,BL,False,1681352917.2229,none
269,2023-04-13_10h28.39.856,0413_01,17,14,2,w,0.473,0.5281,YR,True,1681352919.8568,none
270,2023-04-13_10h28.42.206,0413_01,17,15,1,p,0.247,none,BL,False,1681352922.2065,none
271,2023-04-13_10h28.44.573,0413_01,17,16,1,p,0.2653,none,BR,False,1681352924.5731,none
272,2023-04-13_10h29.18.874,0413_01,18,1,2,w,0.4163,0.5401,YR,True,1681352958.8747,none
273,2023-04-13_10h29.21.323,0413_01,18,2,1,p,0.3586,none,BL,False,1681352961.3237,none
274,2023-04-13_10h29.23.789,0413_01,18,3,1,p,0.3727,none,BR,False,1681352963.7899,none
275,2023-04-13_10h29.26.439,0413_01,18,4,2,w,0.4977,0.5405,YL,True,1681352966.4398,none
276,2023-04-13_10h29.29.090,0413_01,18,5,2,w,0.5456,0.519,YL,True,1681352969.0903,none
277,2023-04-13_10h29.31.756,0413_01,18,6,2,w,0.5474,0.5452,YL,True,1681352971.7562,none
278,2023-04-13_10h29.34.206,0413_01,18,7,1,p,0.347,none,BL,False,1681352974.2069,none
279,2023-04-13_10h29.36.805,0413_01,18,8,2,w,0.4178,0.4891,YL,True,1681352976.8058,none
280,2023-04-13_10h29.39.173,0413_01,18,9,1,p,0.2646,none,BR,False,1681352979.173,none
281,2023-04-13_10h29.41.591,0413_01,18,10,1,p,0.3224,none,BL,False,1681352981.591,none
282,2023-04-13_10h29.44.240,0413_01,18,11,2,w,0.5375,0.525,YR,True,1681352984.2402,none
283,2023-04-13_10h29.46.622,0413_01,18,12,1,p,0.2877,none,BL,False,1681352986.6228,none
284,2023-04-13_10h29.49.340,0413_01,18,13,2,w,0.6058,0.4561,YR,True,1681352989.3409,none
285,2023-04-13_10h29.51.740,0413_01,18,14,1,p,0.2999,none,BR,False,1681352991.7404,none
286,2023-04-13_10h29.54.290,0413_01,18,15,2,w,0.4198,0.4454,YR,True,1681352994.2902,none
287,2023-04-13_10h29.56.657,0413_01,18,16,1,p,0.262,none,BR,False,1681352996.6576,none
288,2023-04-13_10h30.29.873,0413_01,19,1,2,w,0.3467,0.4003,YR,True,1681353029.874,none
289,2023-04-13_10h30.32.340,0413_01,19,2,1,p,0.3664,none,BR,False,1681353032.3401,none
290,2023-04-13_10h30.34.824,0413_01,19,3,1,p,0.3873,none,BL,False,1681353034.824,none
291,2023-04-13_10h30.37.390,0413_01,19,4,2,w,0.3601,0.4598,YL,True,1681353037.3907,none
292,2023-04-13_10h30.39.823,0413_01,19,5,1,p,0.3376,none,BR,False,1681353039.8239,none
293,2023-04-13_10h30.42.289,0413_01,19,6,1,p,0.3688,none,BL,False,1681353042.2899,none
294,2023-04-13_10h30.44.857,0413_01,19,7,1,p,0.4621,none,BL,False,1681353044.8573,none
295,2023-04-13_10h30.47.173,0413_01,19,8,1,p,0.2235,none,BL,False,1681353047.173,none
296,2023-04-13_10h30.49.790,0413_01,19,9,2,w,0.3385,0.5132,YR,True,1681353049.7909,none
297,2023-04-13_10h30.53.157,0413_01,19,10,2,w,1.2445,0.4957,YL,True,1681353053.1576,none
298,2023-04-13_10h30.55.757,0413_01,19,11,2,w,0.4858,0.4368,YR,True,1681353055.7571,none
299,2023-04-13_10h30.58.141,0413_01,19,12,1,p,0.2912,none,BR,False,1681353058.1415,none
300,2023-04-13_10h31.00.657,0413_01,19,13,2,w,0.4022,0.3993,YR,True,1681353060.6574,none
301,2023-04-13_10h31.03.390,0413_01,19,14,2,w,0.6314,0.4256,YL,True,1681353063.3909,none
302,2023-04-13_10h31.05.857,0413_01,19,15,1,p,0.3772,none,BR,False,1681353065.857,none
303,2023-04-13_10h31.08.473,0413_01,19,16,2,w,0.4872,0.5034,YL,True,1681353068.4732,none
304,2023-04-13_10h31.42.889,0413_01,20,1,2,w,0.3652,0.4629,YR,True,1681353102.89,none
305,2023-04-13_10h31.45.274,0413_01,20,2,1,p,0.2937,none,BR,False,1681353105.2744,none
306,2023-04-13_10h31.47.756,0413_01,20,3,1,p,0.3904,none,BL,False,1681353107.7562,none
307,2023-04-13_10h31.50.290,0413_01,20,4,2,w,0.4109,0.4185,YR,True,1681353110.2906,none
308,2023-04-13_10h31.52.940,0413_01,20,5,2,w,0.5089,0.5416,YL,True,1681353112.9407,none
309,2023-04-13_10h31.55.457,0413_01,20,6,1,p,0.4193,none,BR,False,1681353115.4578,none
310,2023-04-13_10h31.58.057,0413_01,20,7,2,w,0.3588,0.4991,YL,True,1681353118.0574,none
311,2023-04-13_10h32.00.707,0413_01,20,8,2,w,0.5189,0.5384,YR,True,1681353120.7077,none
312,2023-04-13_10h32.03.106,0413_01,20,9,1,p,0.3003,none,BL,False,1681353123.107,none
313,2023-04-13_10h32.05.757,0413_01,20,10,2,w,0.4122,0.5335,YR,True,1681353125.7571,none
314,2023-04-13_10h32.08.174,0413_01,20,11,1,p,0.3228,none,BL,False,1681353128.1741,none
315,2023-04-13_10h32.10.639,0413_01,20,12,1,p,0.3364,none,BR,False,1681353130.6398,none
316,2023-04-13_10h32.13.224,0413_01,20,13,2,w,0.4157,0.4683,YL,True,1681353133.2246,none
317,2023-04-13_10h32.15.807,0413_01,20,14,1,p,0.4802,none,BR,False,1681353135.8074,none
318,2023-04-13_10h32.18.457,0413_01,20,15,2,w,0.4727,0.5406,YL,True,1681353138.457,none
319,2023-04-13_10h32.20.874,0413_01,20,16,1,p,0.3184,none,BL,False,1681353140.8741,none
