,timestamp,experiment_ID,block_ID,stimulus_ID,subject,key_press,rt,fake_human_rt,trial_stim,fake_or_not,UNIX_time,wrong_type
0,2023-05-08_16h47.31.576,0508_5,1,1,1,p,0.3911,none,BR,False,1683535651.5761,none
1,2023-05-08_16h47.34.126,0508_5,1,2,2,w,0.453,none,YL,False,1683535654.126,none
2,2023-05-08_16h47.36.758,0508_5,1,3,2,w,0.5349,none,YR,False,1683535656.759,none
3,2023-05-08_16h47.39.192,0508_5,1,4,2,w,0.3419,none,YR,False,1683535659.1921,none
4,2023-05-08_16h47.41.726,0508_5,1,5,1,p,0.4365,none,BR,False,1683535661.7264,none
5,2023-05-08_16h47.44.459,0508_5,1,6,2,w,0.6394,none,YL,False,1683535664.4592,none
6,2023-05-08_16h47.46.942,0508_5,1,7,2,w,0.3848,none,YR,False,1683535666.9423,none
7,2023-05-08_16h47.49.459,0508_5,1,8,1,p,0.4221,none,BR,False,1683535669.4592,none
8,2023-05-08_16h47.52.075,0508_5,1,9,1,p,0.5135,none,BL,False,1683535672.0757,none
9,2023-05-08_16h47.54.609,0508_5,1,10,2,w,0.4329,none,YL,False,1683535674.6096,none
10,2023-05-08_16h47.57.144,0508_5,1,11,2,w,0.4351,none,YR,False,1683535677.144,none
11,2023-05-08_16h47.59.726,0508_5,1,12,1,p,0.4784,none,BL,False,1683535679.726,none
12,2023-05-08_16h48.02.159,0508_5,1,13,2,w,0.3428,none,YL,False,1683535682.1598,none
13,2023-05-08_16h48.04.560,0508_5,1,14,1,p,0.3083,none,BR,False,1683535684.5609,none
14,2023-05-08_16h48.07.125,0508_5,1,15,1,p,0.4616,none,BL,False,1683535687.126,none
15,2023-05-08_16h48.09.726,0508_5,1,16,1,p,0.5106,none,BL,False,1683535689.7264,none
16,2023-05-08_16h48.44.358,0508_5,2,1,2,w,0.3508,none,YL,False,1683535724.3598,none
17,2023-05-08_16h48.46.777,0508_5,2,2,1,p,0.3179,none,BR,False,1683535726.7771,none
18,2023-05-08_16h48.49.276,0508_5,2,3,1,p,0.4039,none,BL,False,1683535729.2765,none
19,2023-05-08_16h48.51.710,0508_5,2,4,1,p,0.3364,none,BL,False,1683535731.7102,none
20,2023-05-08_16h48.54.292,0508_5,2,5,2,w,0.4794,none,YL,False,1683535734.2926,none
21,2023-05-08_16h48.56.926,0508_5,2,6,2,w,0.5282,none,YR,False,1683535736.9266,none
22,2023-05-08_16h48.59.343,0508_5,2,7,2,w,0.3266,none,YR,False,1683535739.3431,none
23,2023-05-08_16h49.01.809,0508_5,2,8,1,p,0.3656,none,BR,False,1683535741.8098,none
24,2023-05-08_16h49.04.409,0508_5,2,9,2,w,0.5069,none,YR,False,1683535744.4091,none
25,2023-05-08_16h49.06.876,0508_5,2,10,2,w,0.3711,none,YL,False,1683535746.876,none
26,2023-05-08_16h49.09.377,0508_5,2,11,1,p,0.4013,none,BL,False,1683535749.3778,none
27,2023-05-08_16h49.11.875,0508_5,2,12,1,p,0.3972,none,BL,False,1683535751.8755,none
28,2023-05-08_16h49.14.325,0508_5,2,13,1,p,0.3604,none,BR,False,1683535754.3256,none
29,2023-05-08_16h49.16.893,0508_5,2,14,2,w,0.4699,none,YL,False,1683535756.8934,none
30,2023-05-08_16h49.19.326,0508_5,2,15,2,w,0.3279,none,YR,False,1683535759.3263,none
31,2023-05-08_16h49.21.826,0508_5,2,16,1,p,0.3984,none,BR,False,1683535761.8268,none
32,2023-05-08_16h49.57.076,0508_5,3,1,1,p,0.4379,none,BL,False,1683535797.0763,none
33,2023-05-08_16h49.59.609,0508_5,3,2,1,p,0.44,none,BR,False,1683535799.6094,none
34,2023-05-08_16h50.02.076,0508_5,3,3,1,p,0.3629,none,BR,False,1683535802.0766,none
35,2023-05-08_16h50.04.943,0508_5,3,4,2,w,0.3924,0.7649,YR,True,1683535804.9434,none
36,2023-05-08_16h50.07.808,0508_5,3,5,2,w,0.3419,0.7649,YR,True,1683535807.809,none
37,2023-05-08_16h50.10.360,0508_5,3,6,1,p,0.4509,none,BR,False,1683535810.3609,none
38,2023-05-08_16h50.13.226,0508_5,3,7,2,w,0.5251,0.7649,YL,True,1683535813.2265,none
39,2023-05-08_16h50.16.109,0508_5,3,8,2,w,0.3624,0.7649,YR,True,1683535816.11,none
40,2023-05-08_16h50.18.576,0508_5,3,9,1,p,0.3752,none,BL,False,1683535818.5763,none
41,2023-05-08_16h50.21.026,0508_5,3,10,1,p,0.3565,none,BL,False,1683535821.0265,none
42,2023-05-08_16h50.23.892,0508_5,3,11,2,w,0.6258,0.7649,YL,True,1683535823.8927,none
43,2023-05-08_16h50.26.326,0508_5,3,12,1,p,0.328,none,BL,False,1683535826.3264,none
44,2023-05-08_16h50.29.210,0508_5,3,13,2,w,0.5822,0.7649,YL,True,1683535829.2104,none
45,2023-05-08_16h50.32.076,0508_5,3,14,2,w,0.5064,0.7649,YR,True,1683535832.0761,none
46,2023-05-08_16h50.34.560,0508_5,3,15,1,p,0.392,none,BR,False,1683535834.5602,none
47,2023-05-08_16h50.37.426,0508_5,3,16,2,w,0.3403,0.7649,YL,True,1683535837.4261,none
48,2023-05-08_16h51.12.493,0508_5,4,1,2,w,0.3609,0.7334,YL,True,1683535872.4931,none
49,2023-05-08_16h51.15.159,0508_5,4,2,1,p,0.5758,none,BR,False,1683535875.1606,none
50,2023-05-08_16h51.18.010,0508_5,4,3,2,w,0.4291,0.732,YR,True,1683535878.0109,none
51,2023-05-08_16h51.20.859,0508_5,4,4,2,w,0.4107,0.7393,YL,True,1683535880.8599,none
52,2023-05-08_16h51.24.228,0508_5,4,5,2,w,1.2458,0.7306,YL,True,1683535884.2281,none
53,2023-05-08_16h51.27.077,0508_5,4,6,2,w,0.3064,0.7376,YL,True,1683535887.0771,none
54,2023-05-08_16h51.29.626,0508_5,4,7,1,p,0.4561,none,BL,False,1683535889.6263,none
55,2023-05-08_16h51.32.077,0508_5,4,8,1,p,0.3463,none,BL,False,1683535892.0775,none
56,2023-05-08_16h51.34.494,0508_5,4,9,1,p,0.3123,none,BR,False,1683535894.4943,none
57,2023-05-08_16h51.36.859,0508_5,4,10,1,p,0.2718,none,BR,False,1683535896.8596,none
58,2023-05-08_16h51.39.210,0508_5,4,11,1,p,0.2489,none,BL,False,1683535899.2106,none
59,2023-05-08_16h51.41.744,0508_5,4,12,1,p,0.4349,none,BL,False,1683535901.7446,none
60,2023-05-08_16h51.44.593,0508_5,4,13,2,w,0.3254,0.7408,YR,True,1683535904.5933,none
61,2023-05-08_16h51.47.443,0508_5,4,14,2,w,0.2994,0.7337,YR,True,1683535907.4439,none
62,2023-05-08_16h51.50.292,0508_5,4,15,2,w,0.3466,0.7317,YR,True,1683535910.293,none
63,2023-05-08_16h51.52.710,0508_5,4,16,1,p,0.3192,none,BR,False,1683535912.7102,none
64,2023-05-08_16h52.30.393,0508_5,5,1,1,p,0.3912,none,BL,False,1683535950.3938,none
65,2023-05-08_16h52.33.210,0508_5,5,2,2,w,0.3067,0.7107,YR,True,1683535953.2103,none
66,2023-05-08_16h52.36.026,0508_5,5,3,2,w,0.3217,0.7075,YL,True,1683535956.0265,none
67,2023-05-08_16h52.38.493,0508_5,5,4,1,p,0.3701,none,BL,False,1683535958.4939,none
68,2023-05-08_16h52.41.310,0508_5,5,5,2,w,0.3357,0.7105,YL,True,1683535961.3102,none
69,2023-05-08_16h52.44.126,0508_5,5,6,2,w,0.3585,0.7116,YL,True,1683535964.1265,none
70,2023-05-08_16h52.46.926,0508_5,5,7,2,w,0.3422,0.7008,YR,True,1683535966.926,none
71,2023-05-08_16h52.49.393,0508_5,5,8,1,p,0.374,none,BR,False,1683535969.3936,none
72,2023-05-08_16h52.51.776,0508_5,5,9,1,p,0.2915,none,BR,False,1683535971.7763,none
73,2023-05-08_16h52.54.593,0508_5,5,10,2,w,0.4528,0.6979,YL,True,1683535974.5932,none
74,2023-05-08_16h52.57.010,0508_5,5,11,1,p,0.3233,none,BR,False,1683535977.01,none
75,2023-05-08_16h52.59.843,0508_5,5,12,2,w,0.3386,0.7166,YR,True,1683535979.8438,none
76,2023-05-08_16h53.02.226,0508_5,5,13,1,p,0.2814,none,BL,False,1683535982.2264,none
77,2023-05-08_16h53.04.710,0508_5,5,14,1,p,0.3938,none,BR,False,1683535984.7102,none
78,2023-05-08_16h53.07.143,0508_5,5,15,1,p,0.3427,none,BL,False,1683535987.1434,none
79,2023-05-08_16h53.09.960,0508_5,5,16,2,w,0.3653,0.705,YR,True,1683535989.9607,none
80,2023-05-08_16h54.14.593,0508_5,6,1,2,w,0.3308,0.6633,YL,True,1683536054.5933,none
81,2023-05-08_16h54.17.393,0508_5,6,2,2,w,0.2915,0.6894,YL,True,1683536057.3933,none
82,2023-05-08_16h54.20.192,0508_5,6,3,2,w,0.3154,0.6869,YR,True,1683536060.1929,none
83,2023-05-08_16h54.22.627,0508_5,6,4,1,p,0.339,none,BR,False,1683536062.6271,none
84,2023-05-08_16h54.25.127,0508_5,6,5,1,p,0.4018,none,BL,False,1683536065.1273,none
85,2023-05-08_16h54.27.926,0508_5,6,6,2,w,0.3575,0.6956,YL,True,1683536067.9264,none
86,2023-05-08_16h54.30.244,0508_5,6,7,1,p,0.2217,none,BR,False,1683536070.2446,none
87,2023-05-08_16h54.32.626,0508_5,6,8,1,p,0.2809,none,BL,False,1683536072.6268,none
88,2023-05-08_16h54.35.409,0508_5,6,9,2,w,0.3935,0.6753,YR,True,1683536075.41,none
89,2023-05-08_16h54.37.710,0508_5,6,10,1,p,0.2027,none,BL,False,1683536077.7109,none
90,2023-05-08_16h54.40.110,0508_5,6,11,1,p,0.2947,none,BR,False,1683536080.111,none
91,2023-05-08_16h54.42.476,0508_5,6,12,1,p,0.2711,none,BL,False,1683536082.4769,none
92,2023-05-08_16h54.44.827,0508_5,6,13,1,p,0.2481,none,BR,False,1683536084.8276,none
93,2023-05-08_16h54.47.609,0508_5,6,14,2,w,0.3856,0.6725,YL,True,1683536087.6097,none
94,2023-05-08_16h54.50.410,0508_5,6,15,2,w,0.3056,0.6922,YR,True,1683536090.4101,none
95,2023-05-08_16h54.53.210,0508_5,6,16,2,w,0.3225,0.6876,YR,True,1683536093.21,none
96,2023-05-08_16h55.27.426,0508_5,7,1,2,w,0.7049,0.6324,YL,True,1683536127.4263,none
97,2023-05-08_16h55.29.860,0508_5,7,2,1,p,0.3372,none,BL,False,1683536129.8604,none
98,2023-05-08_16h55.32.610,0508_5,7,3,2,w,0.3761,0.6481,YL,True,1683536132.6105,none
99,2023-05-08_16h55.35.360,0508_5,7,4,2,w,0.5141,0.6282,YR,True,1683536135.3609,none
100,2023-05-08_16h55.38.126,0508_5,7,5,2,w,0.3644,0.6544,YL,True,1683536138.1266,none
101,2023-05-08_16h55.40.493,0508_5,7,6,1,p,0.2696,none,BL,False,1683536140.4946,none
102,2023-05-08_16h55.42.845,0508_5,7,7,1,p,0.2554,none,BR,False,1683536142.8451,none
103,2023-05-08_16h55.45.360,0508_5,7,8,1,p,0.4247,none,BR,False,1683536145.3608,none
104,2023-05-08_16h55.48.110,0508_5,7,9,2,w,0.6442,0.6529,YR,True,1683536148.1109,none
105,2023-05-08_16h55.50.461,0508_5,7,10,1,p,0.2464,none,BR,False,1683536150.4612,none
106,2023-05-08_16h55.52.826,0508_5,7,11,1,p,0.2644,none,BR,False,1683536152.8265,none
107,2023-05-08_16h55.55.576,0508_5,7,12,2,w,0.4894,0.6436,YR,True,1683536155.5768,none
108,2023-05-08_16h55.58.360,0508_5,7,13,2,w,0.3634,0.6601,YL,True,1683536158.3603,none
109,2023-05-08_16h56.00.760,0508_5,7,14,1,p,0.3083,none,BL,False,1683536160.7608,none
110,2023-05-08_16h56.03.543,0508_5,7,15,2,w,0.3406,0.6724,YR,True,1683536163.5434,none
111,2023-05-08_16h56.05.994,0508_5,7,16,1,p,0.3574,none,BL,False,1683536165.9949,none
112,2023-05-08_16h56.40.727,0508_5,8,1,2,w,0.3428,none,YL,False,1683536200.7276,none
113,2023-05-08_16h56.43.144,0508_5,8,2,2,w,0.3256,none,YR,False,1683536203.1442,none
114,2023-05-08_16h56.45.611,0508_5,8,3,2,w,0.3732,none,YR,False,1683536205.6111,none
115,2023-05-08_16h56.47.943,0508_5,8,4,1,p,0.2343,none,BL,False,1683536207.944,none
116,2023-05-08_16h56.50.693,0508_5,8,5,2,w,0.6607,none,YR,False,1683536210.6935,none
117,2023-05-08_16h56.53.277,0508_5,8,6,2,w,0.4864,none,YL,False,1683536213.2773,none
118,2023-05-08_16h56.55.677,0508_5,8,7,1,p,0.3037,none,BR,False,1683536215.6773,none
119,2023-05-08_16h56.58.244,0508_5,8,8,1,p,0.4717,none,BL,False,1683536218.2447,none
120,2023-05-08_16h57.00.694,0508_5,8,9,1,p,0.345,none,BL,False,1683536220.6943,none
121,2023-05-08_16h57.03.161,0508_5,8,10,2,w,0.3665,none,YL,False,1683536223.1612,none
122,2023-05-08_16h57.05.593,0508_5,8,11,2,w,0.34,none,YR,False,1683536225.5937,none
123,2023-05-08_16h57.08.026,0508_5,8,12,1,p,0.3391,none,BR,False,1683536228.0267,none
124,2023-05-08_16h57.10.511,0508_5,8,13,1,p,0.3932,none,BR,False,1683536230.5118,none
125,2023-05-08_16h57.13.143,0508_5,8,14,2,w,0.534,none,YL,False,1683536233.1444,none
126,2023-05-08_16h57.15.510,0508_5,8,15,1,p,0.2611,none,BL,False,1683536235.5108,none
127,2023-05-08_16h57.17.911,0508_5,8,16,1,p,0.3102,none,BR,False,1683536237.9117,none
128,2023-05-08_16h57.52.195,0508_5,9,1,1,p,0.423,none,BL,False,1683536272.1952,none
129,2023-05-08_16h57.54.626,0508_5,9,2,1,p,0.3386,none,BR,False,1683536274.6268,none
130,2023-05-08_16h57.57.061,0508_5,9,3,1,p,0.3294,none,BR,False,1683536277.0612,none
131,2023-05-08_16h57.59.494,0508_5,9,4,1,p,0.3437,none,BR,False,1683536279.4945,none
132,2023-05-08_16h58.01.894,0508_5,9,5,1,p,0.3024,none,BR,False,1683536281.895,none
133,2023-05-08_16h58.04.410,0508_5,9,6,2,w,0.4147,none,YL,False,1683536284.4103,none
134,2023-05-08_16h58.06.827,0508_5,9,7,2,w,0.3136,none,YR,False,1683536286.8272,none
135,2023-05-08_16h58.09.344,0508_5,9,8,1,p,0.4252,none,BL,False,1683536289.3443,none
136,2023-05-08_16h58.11.743,0508_5,9,9,2,w,0.301,none,YR,False,1683536291.7437,none
137,2023-05-08_16h58.14.161,0508_5,9,10,2,w,0.3168,none,YR,False,1683536294.1613,none
138,2023-05-08_16h58.16.560,0508_5,9,11,2,w,0.2996,none,YL,False,1683536296.5604,none
139,2023-05-08_16h58.19.077,0508_5,9,12,1,p,0.412,none,BL,False,1683536299.0784,none
140,2023-05-08_16h58.21.510,0508_5,9,13,2,w,0.3354,none,YR,False,1683536301.5104,none
141,2023-05-08_16h58.24.011,0508_5,9,14,1,p,0.4058,none,BL,False,1683536304.0112,none
142,2023-05-08_16h58.26.694,0508_5,9,15,2,w,0.5941,none,YL,False,1683536306.6945,none
143,2023-05-08_16h58.29.177,0508_5,9,16,2,w,0.3824,none,YL,False,1683536309.1779,none
144,2023-05-08_16h59.04.527,0508_5,10,1,2,w,0.3209,0.5968,YL,True,1683536344.5277,none
145,2023-05-08_16h59.07.243,0508_5,10,2,2,w,0.4052,0.6051,YR,True,1683536347.2437,none
146,2023-05-08_16h59.09.978,0508_5,10,3,2,w,0.3364,0.6293,YL,True,1683536349.9784,none
147,2023-05-08_16h59.12.493,0508_5,10,4,1,p,0.427,none,BL,False,1683536352.4936,none
148,2023-05-08_16h59.15.243,0508_5,10,5,2,w,0.3985,0.6348,YL,True,1683536355.2438,none
149,2023-05-08_16h59.17.961,0508_5,10,6,2,w,0.3526,0.6084,YR,True,1683536357.9618,none
150,2023-05-08_16h59.20.727,0508_5,10,7,1,p,0.6677,none,BL,False,1683536360.7276,none
151,2023-05-08_16h59.23.460,0508_5,10,8,2,w,0.3413,0.6333,YR,True,1683536363.4609,none
152,2023-05-08_16h59.25.895,0508_5,10,9,1,p,0.3357,none,BR,False,1683536365.8952,none
153,2023-05-08_16h59.28.294,0508_5,10,10,1,p,0.2946,none,BL,False,1683536368.2942,none
154,2023-05-08_16h59.30.610,0508_5,10,11,1,p,0.2144,none,BR,False,1683536370.6107,none
155,2023-05-08_16h59.33.645,0508_5,10,12,2,w,0.9152,0.6184,YL,True,1683536373.6456,none
156,2023-05-08_16h59.36.026,0508_5,10,13,1,p,0.2813,none,BR,False,1683536376.0267,none
157,2023-05-08_16h59.38.460,0508_5,10,14,1,p,0.3373,none,BR,False,1683536378.4604,none
158,2023-05-08_16h59.41.161,0508_5,10,15,2,w,0.3917,0.6,YR,True,1683536381.1612,none
159,2023-05-08_16h59.43.578,0508_5,10,16,1,p,0.3239,none,BL,False,1683536383.5781,none
160,2023-05-08_17h00.54.544,0508_5,11,1,1,p,1.0579,none,BR,False,1683536454.5442,none
161,2023-05-08_17h00.57.078,0508_5,11,2,1,p,0.4441,none,BR,False,1683536457.078,none
162,2023-05-08_17h00.59.761,0508_5,11,3,2,w,0.3589,0.5827,YL,True,1683536459.7616,none
163,2023-05-08_17h01.02.178,0508_5,11,4,1,p,0.3225,none,BL,False,1683536462.1795,none
164,2023-05-08_17h01.04.843,0508_5,11,5,2,w,0.3548,0.5594,YR,True,1683536464.8439,none
165,2023-05-08_17h01.07.194,0508_5,11,6,2,p,0.2565,0.6047,YL,True,1683536467.1945,Wrong_press
166,2023-05-08_17h01.09.611,0508_5,11,7,1,p,0.314,none,BL,False,1683536469.6119,none
167,2023-05-08_17h01.12.011,0508_5,11,8,1,p,0.2974,none,BR,False,1683536472.0114,none
168,2023-05-08_17h01.14.712,0508_5,11,9,2,w,0.5136,0.5904,YR,True,1683536474.7123,none
169,2023-05-08_17h01.17.394,0508_5,11,10,2,w,0.5578,0.5814,YR,True,1683536477.3947,none
170,2023-05-08_17h01.19.811,0508_5,11,11,1,p,0.3141,none,BL,False,1683536479.8114,none
171,2023-05-08_17h01.22.529,0508_5,11,12,2,w,0.3935,0.6113,YR,True,1683536482.5291,none
172,2023-05-08_17h01.24.944,0508_5,11,13,1,p,0.3169,none,BL,False,1683536484.9444,none
173,2023-05-08_17h01.27.661,0508_5,11,14,2,w,0.3874,0.614,YL,True,1683536487.6615,none
174,2023-05-08_17h01.30.078,0508_5,11,15,1,p,0.3117,none,BR,False,1683536490.0789,none
175,2023-05-08_17h01.32.745,0508_5,11,16,2,w,0.375,0.566,YL,True,1683536492.7451,none
176,2023-05-08_17h02.06.160,0508_5,12,1,1,p,0.3584,none,BR,False,1683536526.161,none
177,2023-05-08_17h02.08.660,0508_5,12,2,1,p,0.4034,none,BR,False,1683536528.6607,none
178,2023-05-08_17h02.11.061,0508_5,12,3,1,p,0.3031,none,BL,False,1683536531.062,none
179,2023-05-08_17h02.13.378,0508_5,12,4,1,p,0.2234,none,BL,False,1683536533.3788,none
180,2023-05-08_17h02.16.093,0508_5,12,5,2,w,0.3385,0.6037,YL,True,1683536536.094,none
181,2023-05-08_17h02.18.777,0508_5,12,6,2,w,0.3264,0.5802,YL,True,1683536538.7778,none
182,2023-05-08_17h02.21.211,0508_5,12,7,1,p,0.3303,none,BL,False,1683536541.2117,none
183,2023-05-08_17h02.23.862,0508_5,12,8,2,w,0.4651,0.5278,YR,True,1683536543.8624,none
184,2023-05-08_17h02.26.578,0508_5,12,9,2,w,0.2952,0.5886,YL,True,1683536546.5781,none
185,2023-05-08_17h02.29.028,0508_5,12,10,1,p,0.3465,none,BR,False,1683536549.0286,none
186,2023-05-08_17h02.31.444,0508_5,12,11,1,p,0.3208,none,BR,False,1683536551.4443,none
187,2023-05-08_17h02.34.161,0508_5,12,12,2,w,0.3282,0.6054,YR,True,1683536554.1612,none
188,2023-05-08_17h02.36.561,0508_5,12,13,1,p,0.307,none,BL,False,1683536556.5618,none
189,2023-05-08_17h02.39.228,0508_5,12,14,2,w,0.2911,0.5598,YR,True,1683536559.228,none
190,2023-05-08_17h02.41.928,0508_5,12,15,2,w,0.3284,0.5856,YL,True,1683536561.9289,none
191,2023-05-08_17h02.44.611,0508_5,12,16,2,w,0.2599,0.5795,YR,True,1683536564.6114,none
192,2023-05-08_17h03.16.828,0508_5,13,1,2,w,0.3482,0.5644,YL,True,1683536596.8283,none
193,2023-05-08_17h03.19.494,0508_5,13,2,2,w,0.3204,0.5529,YR,True,1683536599.4942,none
194,2023-05-08_17h03.21.894,0508_5,13,3,1,p,0.3019,none,BL,False,1683536601.8945,none
195,2023-05-08_17h03.24.528,0508_5,13,4,2,w,0.3898,0.5222,YL,True,1683536604.5282,none
196,2023-05-08_17h03.26.944,0508_5,13,5,1,p,0.3165,none,BL,False,1683536606.9444,none
197,2023-05-08_17h03.29.627,0508_5,13,6,2,w,0.4111,0.5607,YL,True,1683536609.6278,none
198,2023-05-08_17h03.32.011,0508_5,13,7,1,p,0.2879,none,BR,False,1683536612.012,none
199,2023-05-08_17h03.34.678,0508_5,13,8,2,w,0.3371,0.5611,YR,True,1683536614.6788,none
200,2023-05-08_17h03.37.327,0508_5,13,9,2,w,0.343,0.5383,YL,True,1683536617.328,none
201,2023-05-08_17h03.39.761,0508_5,13,10,1,p,0.3396,none,BR,False,1683536619.7612,none
202,2023-05-08_17h03.42.243,0508_5,13,11,1,p,0.3797,none,BL,False,1683536622.2434,none
203,2023-05-08_17h03.45.110,0508_5,13,12,1,p,0.7675,none,BR,False,1683536625.1108,none
204,2023-05-08_17h03.47.844,0508_5,13,13,2,w,0.6225,0.519,YR,True,1683536627.8444,none
205,2023-05-08_17h03.50.244,0508_5,13,14,1,p,0.3038,none,BR,False,1683536630.2445,none
206,2023-05-08_17h03.52.928,0508_5,13,15,2,w,0.4798,0.565,YR,True,1683536632.9283,none
207,2023-05-08_17h03.55.344,0508_5,13,16,1,p,0.3164,none,BL,False,1683536635.3447,none
208,2023-05-08_17h04.30.994,0508_5,14,1,2,w,0.3316,0.5353,YR,True,1683536670.9945,none
209,2023-05-08_17h04.33.345,0508_5,14,2,1,p,0.2574,none,BL,False,1683536673.3453,none
210,2023-05-08_17h04.35.712,0508_5,14,3,1,p,0.2757,none,BR,False,1683536675.7122,none
211,2023-05-08_17h04.38.361,0508_5,14,4,2,w,0.3962,0.5389,YR,True,1683536678.362,none
212,2023-05-08_17h04.40.712,0508_5,14,5,1,p,0.2583,none,BL,False,1683536680.7123,none
213,2023-05-08_17h04.43.162,0508_5,14,6,1,p,0.3562,none,BL,False,1683536683.162,none
214,2023-05-08_17h04.45.761,0508_5,14,7,2,w,0.3391,0.4969,YR,True,1683536685.7616,none
215,2023-05-08_17h04.48.378,0508_5,14,8,2,w,0.387,0.5096,YL,True,1683536688.3782,none
216,2023-05-08_17h04.50.745,0508_5,14,9,1,p,0.2742,none,BL,False,1683536690.746,none
217,2023-05-08_17h04.53.378,0508_5,14,10,2,w,0.3473,0.5233,YL,True,1683536693.3788,none
218,2023-05-08_17h04.56.045,0508_5,14,11,2,w,0.3302,0.5492,YR,True,1683536696.046,none
219,2023-05-08_17h04.58.461,0508_5,14,12,1,p,0.3116,none,BR,False,1683536698.461,none
220,2023-05-08_17h05.01.111,0508_5,14,13,2,w,0.319,0.5306,YL,True,1683536701.1115,none
221,2023-05-08_17h05.03.444,0508_5,14,14,1,p,0.2368,none,BR,False,1683536703.4448,none
222,2023-05-08_17h05.06.061,0508_5,14,15,2,w,0.2871,0.5097,YL,True,1683536706.0614,none
223,2023-05-08_17h05.08.411,0508_5,14,16,1,p,0.2469,none,BR,False,1683536708.4119,none
224,2023-05-08_17h05.43.594,0508_5,15,1,2,w,0.3105,0.4549,YL,True,1683536743.5949,none
225,2023-05-08_17h05.46.246,0508_5,15,2,2,w,0.45,0.5318,YR,True,1683536746.2462,none
226,2023-05-08_17h05.48.795,0508_5,15,3,2,w,0.3595,0.4481,YR,True,1683536748.7957,none
227,2023-05-08_17h05.51.344,0508_5,15,4,2,w,0.3218,0.4418,YL,True,1683536751.344,none
228,2023-05-08_17h05.53.794,0508_5,15,5,1,p,0.3555,none,BR,False,1683536753.7945,none
229,2023-05-08_17h05.56.228,0508_5,15,6,1,p,0.3379,none,BR,False,1683536756.2284,none
230,2023-05-08_17h05.58.828,0508_5,15,7,2,w,0.4798,0.485,YL,True,1683536758.8287,none
231,2023-05-08_17h06.01.195,0508_5,15,8,1,p,0.2723,none,BR,False,1683536761.1954,none
232,2023-05-08_17h06.03.794,0508_5,15,9,2,w,0.491,0.4432,YL,True,1683536763.7945,none
233,2023-05-08_17h06.06.329,0508_5,15,10,2,w,0.3215,0.422,YR,True,1683536766.3299,none
234,2023-05-08_17h06.08.696,0508_5,15,11,1,p,0.2754,none,BL,False,1683536768.6961,none
235,2023-05-08_17h06.11.111,0508_5,15,12,1,p,0.3254,none,BL,False,1683536771.1119,none
236,2023-05-08_17h06.13.461,0508_5,15,13,1,p,0.2607,none,BL,False,1683536773.4614,none
237,2023-05-08_17h06.15.812,0508_5,15,14,1,p,0.2464,none,BR,False,1683536775.8121,none
238,2023-05-08_17h06.18.445,0508_5,15,15,2,w,0.5267,0.4395,YR,True,1683536778.4453,none
239,2023-05-08_17h06.20.862,0508_5,15,16,1,p,0.311,none,BL,False,1683536780.8627,none
240,2023-05-08_17h07.50.712,0508_5,16,1,1,p,0.3841,none,BR,False,1683536870.7123,none
241,2023-05-08_17h07.53.128,0508_5,16,2,1,p,0.3246,none,BL,False,1683536873.1288,none
242,2023-05-08_17h07.55.512,0508_5,16,3,1,p,0.2915,none,BL,False,1683536875.5124,none
243,2023-05-08_17h07.58.061,0508_5,16,4,2,w,0.3485,0.4297,YL,True,1683536878.062,none
244,2023-05-08_17h08.00.462,0508_5,16,5,1,p,0.2943,none,BL,False,1683536880.4622,none
245,2023-05-08_17h08.02.912,0508_5,16,6,1,p,0.3586,none,BL,False,1683536882.9125,none
246,2023-05-08_17h08.05.428,0508_5,16,7,2,w,0.3085,0.4156,YR,True,1683536885.4281,none
247,2023-05-08_17h08.07.995,0508_5,16,8,2,w,0.3521,0.4595,YL,True,1683536887.9953,none
248,2023-05-08_17h08.10.378,0508_5,16,9,2,p,0.2888,0.4543,YR,True,1683536890.3785,Wrong_press
249,2023-05-08_17h08.13.012,0508_5,16,10,2,w,0.5308,0.493,YL,True,1683536893.0123,none
250,2023-05-08_17h08.15.545,0508_5,16,11,1,p,0.4406,none,BR,False,1683536895.5456,none
251,2023-05-08_17h08.18.029,0508_5,16,12,1,p,0.3868,none,BR,False,1683536898.0293,none
252,2023-05-08_17h08.20.696,0508_5,16,13,2,w,0.5546,0.4864,YR,True,1683536900.6962,none
253,2023-05-08_17h08.23.245,0508_5,16,14,2,w,0.3814,0.4294,YR,True,1683536903.2455,none
254,2023-05-08_17h08.25.829,0508_5,16,15,1,p,0.4796,none,BR,False,1683536905.8294,none
255,2023-05-08_17h08.28.329,0508_5,16,16,2,w,0.3593,0.3928,YL,True,1683536908.3295,none
256,2023-05-08_17h09.02.695,0508_5,17,1,2,w,0.3747,none,YL,False,1683536942.6953,none
257,2023-05-08_17h09.05.095,0508_5,17,2,1,p,0.3011,none,BL,False,1683536945.0955,none
258,2023-05-08_17h09.07.512,0508_5,17,3,2,w,0.3168,none,YR,False,1683536947.5122,none
259,2023-05-08_17h09.09.896,0508_5,17,4,2,w,0.2925,none,YR,False,1683536949.8964,none
260,2023-05-08_17h09.12.246,0508_5,17,5,1,p,0.2448,none,BL,False,1683536952.2462,none
261,2023-05-08_17h09.14.679,0508_5,17,6,2,w,0.3277,none,YL,False,1683536954.6791,none
262,2023-05-08_17h09.17.046,0508_5,17,7,1,p,0.2613,none,BR,False,1683536957.0462,none
263,2023-05-08_17h09.19.445,0508_5,17,8,1,p,0.295,none,BL,False,1683536959.4454,none
264,2023-05-08_17h09.21.811,0508_5,17,9,1,p,0.2709,none,BR,False,1683536961.8116,none
265,2023-05-08_17h09.24.229,0508_5,17,10,1,p,0.3201,none,BR,False,1683536964.2297,none
266,2023-05-08_17h09.26.580,0508_5,17,11,1,p,0.2476,none,BL,False,1683536966.5801,none
267,2023-05-08_17h09.28.895,0508_5,17,12,1,p,0.2257,none,BR,False,1683536968.8955,none
268,2023-05-08_17h09.31.428,0508_5,17,13,2,w,0.4378,none,YL,False,1683536971.4284,none
269,2023-05-08_17h09.33.863,0508_5,17,14,2,w,0.3277,none,YL,False,1683536973.8633,none
270,2023-05-08_17h09.36.446,0508_5,17,15,2,w,0.486,none,YR,False,1683536976.4462,none
271,2023-05-08_17h09.38.896,0508_5,17,16,2,w,0.3513,none,YR,False,1683536978.8962,none
272,2023-05-08_17h10.13.613,0508_5,18,1,2,w,0.3986,0.353,YL,True,1683537013.6131,none
273,2023-05-08_17h10.16.129,0508_5,18,2,2,w,0.2643,0.4085,YR,True,1683537016.1293,none
274,2023-05-08_17h10.18.729,0508_5,18,3,2,w,0.4038,0.4897,YL,True,1683537018.7294,none
275,2023-05-08_17h10.21.112,0508_5,18,4,1,p,0.2917,none,BR,False,1683537021.1127,none
276,2023-05-08_17h10.23.646,0508_5,18,5,2,w,0.3324,0.4147,YL,True,1683537023.646,none
277,2023-05-08_17h10.26.045,0508_5,18,6,1,p,0.3023,none,BL,False,1683537026.0459,none
278,2023-05-08_17h10.28.512,0508_5,18,7,1,p,0.3752,none,BR,False,1683537028.5134,none
279,2023-05-08_17h10.30.879,0508_5,18,8,1,p,0.2682,none,BL,False,1683537030.8795,none
280,2023-05-08_17h10.33.230,0508_5,18,9,1,p,0.2536,none,BR,False,1683537033.2309,none
281,2023-05-08_17h10.35.711,0508_5,18,10,2,w,0.3735,0.3713,YR,True,1683537035.7119,none
282,2023-05-08_17h10.38.180,0508_5,18,11,2,w,0.3239,0.3584,YL,True,1683537038.1801,none
283,2023-05-08_17h10.40.678,0508_5,18,12,2,w,0.3698,0.3837,YR,True,1683537040.6787,none
284,2023-05-08_17h10.43.229,0508_5,18,13,1,p,0.4524,none,BR,False,1683537043.2299,none
285,2023-05-08_17h10.45.629,0508_5,18,14,1,p,0.2954,none,BL,False,1683537045.6293,none
286,2023-05-08_17h10.48.179,0508_5,18,15,2,w,0.2959,0.4379,YR,True,1683537048.1796,none
287,2023-05-08_17h10.50.579,0508_5,18,16,1,p,0.2975,none,BL,False,1683537050.5792,none
288,2023-05-08_17h11.29.096,0508_5,19,1,2,w,0.3136,0.3915,YR,True,1683537089.0975,none
289,2023-05-08_17h11.31.513,0508_5,19,2,1,p,0.3246,none,BR,False,1683537091.5134,none
290,2023-05-08_17h11.33.863,0508_5,19,3,1,p,0.26,none,BL,False,1683537093.8632,none
291,2023-05-08_17h11.36.313,0508_5,19,4,2,w,0.3422,0.3475,YL,True,1683537096.3138,none
292,2023-05-08_17h11.38.779,0508_5,19,5,2,w,0.3479,0.3553,YR,True,1683537098.779,none
293,2023-05-08_17h11.41.279,0508_5,19,6,2,w,0.3933,0.3965,YL,True,1683537101.279,none
294,2023-05-08_17h11.43.812,0508_5,19,7,1,p,0.438,none,BL,False,1683537103.8126,none
295,2023-05-08_17h11.46.363,0508_5,19,8,2,w,0.4423,0.4192,YR,True,1683537106.3634,none
296,2023-05-08_17h11.48.845,0508_5,19,9,2,w,0.3699,0.3785,YL,True,1683537108.8457,none
297,2023-05-08_17h11.51.212,0508_5,19,10,1,p,0.2625,none,BR,False,1683537111.2122,none
298,2023-05-08_17h11.53.663,0508_5,19,11,1,p,0.3525,none,BR,False,1683537113.6631,none
299,2023-05-08_17h11.56.196,0508_5,19,12,2,w,0.3017,0.4178,YL,True,1683537116.1963,none
300,2023-05-08_17h11.58.596,0508_5,19,13,1,p,0.3045,none,BL,False,1683537118.5965,none
301,2023-05-08_17h12.01.129,0508_5,19,14,2,w,0.4295,0.3554,YR,True,1683537121.1294,none
302,2023-05-08_17h12.03.512,0508_5,19,15,1,p,0.2834,none,BL,False,1683537123.5127,none
303,2023-05-08_17h12.05.880,0508_5,19,16,1,p,0.2759,none,BR,False,1683537125.8802,none
304,2023-05-08_17h12.40.413,0508_5,20,1,2,w,0.4899,0.3105,YL,True,1683537160.4135,none
305,2023-05-08_17h12.42.896,0508_5,20,2,2,w,0.312,0.3698,YL,True,1683537162.8962,none
306,2023-05-08_17h12.45.346,0508_5,20,3,2,w,0.3005,0.3341,YR,True,1683537165.3464,none
307,2023-05-08_17h12.47.795,0508_5,20,4,1,p,0.3545,none,BR,False,1683537167.796,none
308,2023-05-08_17h12.50.229,0508_5,20,5,2,w,0.3192,0.2907,YR,True,1683537170.2299,none
309,2023-05-08_17h12.52.613,0508_5,20,6,1,p,0.2871,none,BL,False,1683537172.6135,none
310,2023-05-08_17h12.55.012,0508_5,20,7,1,p,0.296,none,BL,False,1683537175.0125,none
311,2023-05-08_17h12.57.630,0508_5,20,8,2,w,0.5054,0.3278,YR,True,1683537177.6304,none
312,2023-05-08_17h12.59.979,0508_5,20,9,1,p,0.2467,none,BR,False,1683537179.9793,none
313,2023-05-08_17h13.02.479,0508_5,20,10,2,w,0.3936,0.3423,YR,True,1683537182.4795,none
314,2023-05-08_17h13.04.829,0508_5,20,11,1,p,0.245,none,BL,False,1683537184.8298,none
315,2023-05-08_17h13.07.212,0508_5,20,12,1,p,0.287,none,BR,False,1683537187.2125,none
316,2023-05-08_17h13.09.646,0508_5,20,13,1,p,0.3358,none,BR,False,1683537189.6467,none
317,2023-05-08_17h13.12.696,0508_5,20,14,2,w,0.945,0.353,YL,True,1683537192.6966,none
318,2023-05-08_17h13.15.062,0508_5,20,15,1,p,0.2764,none,BL,False,1683537195.0623,none
319,2023-05-08_17h13.17.546,0508_5,20,16,2,w,0.3762,0.3107,YL,True,1683537197.5462,none
