,timestamp,experiment_ID,block_ID,stimulus_ID,subject,key_press,rt,fake_human_rt,trial_stim,fake_or_not,UNIX_time,wrong_type
0,2023-04-14_15h36.38.040,0414_04,1,1,1,p,0.2901,none,BL,False,1681457798.0408,none
1,2023-04-14_15h36.40.490,0414_04,1,2,1,p,0.3474,none,BR,False,1681457800.49,none
2,2023-04-14_15h36.42.907,0414_04,1,3,1,p,0.3209,none,BR,False,1681457802.9077,none
3,2023-04-14_15h36.46.857,0414_04,1,4,2,w,1.8561,none,YL,False,1681457806.8576,none
4,2023-04-14_15h36.49.257,0414_04,1,5,1,p,0.3061,none,BL,False,1681457809.2579,none
5,2023-04-14_15h36.51.674,0414_04,1,6,1,p,0.3216,none,BL,False,1681457811.6743,none
6,2023-04-14_15h36.54.724,0414_04,1,7,2,w,0.9448,none,YL,False,1681457814.7244,none
7,2023-04-14_15h36.57.124,0414_04,1,8,1,p,0.3036,none,BL,False,1681457817.1246,none
8,2023-04-14_15h36.59.958,0414_04,1,9,2,w,0.7356,none,YR,False,1681457819.9585,none
9,2023-04-14_15h37.02.674,0414_04,1,10,2,w,0.6219,none,YL,False,1681457822.6743,none
10,2023-04-14_15h37.05.057,0414_04,1,11,1,p,0.2893,none,BR,False,1681457825.0576,none
11,2023-04-14_15h37.08.124,0414_04,1,12,2,w,0.9706,none,YR,False,1681457828.1248,none
12,2023-04-14_15h37.10.574,0414_04,1,13,2,w,0.3594,none,YR,False,1681457830.5742,none
13,2023-04-14_15h37.13.041,0414_04,1,14,1,p,0.3731,none,BR,False,1681457833.0412,none
14,2023-04-14_15h37.15.841,0414_04,1,15,2,w,0.7063,none,YL,False,1681457835.8414,none
15,2023-04-14_15h37.18.374,0414_04,1,16,2,w,0.4425,none,YR,False,1681457838.3743,none
16,2023-04-14_15h37.49.357,0414_04,2,1,2,w,0.3685,none,YL,False,1681457869.358,none
17,2023-04-14_15h37.52.075,0414_04,2,2,2,w,0.6137,none,YR,False,1681457872.0757,none
18,2023-04-14_15h37.54.540,0414_04,2,3,2,w,0.3615,none,YR,False,1681457874.541,none
19,2023-04-14_15h37.56.941,0414_04,2,4,1,p,0.3026,none,BL,False,1681457876.9418,none
20,2023-04-14_15h37.59.308,0414_04,2,5,1,p,0.2621,none,BL,False,1681457879.3087,none
21,2023-04-14_15h38.02.107,0414_04,2,6,2,w,0.6955,none,YL,False,1681457882.1073,none
22,2023-04-14_15h38.04.640,0414_04,2,7,2,w,0.4316,none,YL,False,1681457884.6408,none
23,2023-04-14_15h38.07.107,0414_04,2,8,1,p,0.3624,none,BR,False,1681457887.1073,none
24,2023-04-14_15h38.09.640,0414_04,2,9,2,w,0.4394,none,YL,False,1681457889.6409,none
25,2023-04-14_15h38.12.123,0414_04,2,10,1,p,0.3864,none,BL,False,1681457892.1238,none
26,2023-04-14_15h38.14.524,0414_04,2,11,1,p,0.3109,none,BR,False,1681457894.5241,none
27,2023-04-14_15h38.16.975,0414_04,2,12,2,w,0.3509,none,YR,False,1681457896.9755,none
28,2023-04-14_15h38.19.357,0414_04,2,13,1,p,0.2927,none,BL,False,1681457899.3571,none
29,2023-04-14_15h38.21.940,0414_04,2,14,2,w,0.4858,none,YR,False,1681457901.9409,none
30,2023-04-14_15h38.24.441,0414_04,2,15,1,p,0.3984,none,BR,False,1681457904.4412,none
31,2023-04-14_15h38.26.891,0414_04,2,16,1,p,0.3466,none,BR,False,1681457906.8912,none
32,2023-04-14_15h39.02.141,0414_04,3,1,1,p,0.2854,none,BL,False,1681457942.1418,none
33,2023-04-14_15h39.05.074,0414_04,3,2,2,w,0.4464,0.8085,YL,True,1681457945.0745,none
34,2023-04-14_15h39.07.541,0414_04,3,3,1,p,0.3613,none,BR,False,1681457947.5416,none
35,2023-04-14_15h39.09.957,0414_04,3,4,1,p,0.3181,none,BL,False,1681457949.958,none
36,2023-04-14_15h39.12.875,0414_04,3,5,2,w,0.4855,0.8085,YR,True,1681457952.8755,none
37,2023-04-14_15h39.15.790,0414_04,3,6,2,w,0.3924,0.8085,YL,True,1681457955.7906,none
38,2023-04-14_15h39.18.707,0414_04,3,7,2,w,0.3715,0.8085,YL,True,1681457958.7079,none
39,2023-04-14_15h39.21.241,0414_04,3,8,1,p,0.4307,none,BR,False,1681457961.2419,none
40,2023-04-14_15h39.24.157,0414_04,3,9,2,w,0.4102,0.8085,YR,True,1681457964.1574,none
41,2023-04-14_15h39.26.592,0414_04,3,10,1,p,0.3335,none,BL,False,1681457966.5921,none
42,2023-04-14_15h39.29.508,0414_04,3,11,2,w,0.2763,0.8085,YR,True,1681457969.5081,none
43,2023-04-14_15h39.31.891,0414_04,3,12,1,p,0.2873,none,BL,False,1681457971.892,none
44,2023-04-14_15h39.34.807,0414_04,3,13,2,w,0.3204,0.8085,YR,True,1681457974.8079,none
45,2023-04-14_15h39.37.724,0414_04,3,14,2,w,0.3871,0.8085,YL,True,1681457977.7247,none
46,2023-04-14_15h39.40.258,0414_04,3,15,1,p,0.431,none,BR,False,1681457980.2586,none
47,2023-04-14_15h39.42.691,0414_04,3,16,1,p,0.3292,none,BR,False,1681457982.6916,none
48,2023-04-14_15h40.20.041,0414_04,4,1,1,p,0.339,none,BR,False,1681458020.041,none
49,2023-04-14_15h40.22.524,0414_04,4,2,1,p,0.3862,none,BL,False,1681458022.5247,none
50,2023-04-14_15h40.25.407,0414_04,4,3,2,w,0.5343,0.7772,YR,True,1681458025.4078,none
51,2023-04-14_15h40.28.292,0414_04,4,4,2,w,0.4358,0.7781,YL,True,1681458028.2924,none
52,2023-04-14_15h40.31.174,0414_04,4,5,2,w,0.3201,0.779,YL,True,1681458031.1745,none
53,2023-04-14_15h40.34.057,0414_04,4,6,2,w,0.3566,0.7831,YL,True,1681458034.0574,none
54,2023-04-14_15h40.36.524,0414_04,4,7,1,p,0.3609,none,BR,False,1681458036.5245,none
55,2023-04-14_15h40.39.424,0414_04,4,8,2,w,0.6471,0.7842,YL,True,1681458039.4245,none
56,2023-04-14_15h40.42.324,0414_04,4,9,2,w,0.5859,0.7802,YR,True,1681458042.3249,none
57,2023-04-14_15h40.45.224,0414_04,4,10,2,w,0.3668,0.7839,YR,True,1681458045.2248,none
58,2023-04-14_15h40.47.708,0414_04,4,11,1,p,0.3789,none,BR,False,1681458047.7085,none
59,2023-04-14_15h40.50.074,0414_04,4,12,1,p,0.2708,none,BL,False,1681458050.0747,none
60,2023-04-14_15h40.52.558,0414_04,4,13,1,p,0.3928,none,BR,False,1681458052.5586,none
61,2023-04-14_15h40.54.974,0414_04,4,14,1,p,0.3174,none,BL,False,1681458054.9748,none
62,2023-04-14_15h40.57.424,0414_04,4,15,1,p,0.3484,none,BL,False,1681458057.4249,none
63,2023-04-14_15h41.00.324,0414_04,4,16,2,w,0.5466,0.7753,YR,True,1681458060.3244,none
64,2023-04-14_15h41.36.642,0414_04,5,1,1,p,0.339,none,BR,False,1681458096.6423,none
65,2023-04-14_15h41.39.041,0414_04,5,2,1,p,0.3054,none,BL,False,1681458099.0413,none
66,2023-04-14_15h41.41.525,0414_04,5,3,2,w,0.3858,none,YL,False,1681458101.5257,none
67,2023-04-14_15h41.44.040,0414_04,5,4,2,w,0.4223,none,YR,False,1681458104.041,none
68,2023-04-14_15h41.46.608,0414_04,5,5,1,p,0.4659,none,BR,False,1681458106.6088,none
69,2023-04-14_15h41.48.991,0414_04,5,6,1,p,0.2911,none,BL,False,1681458108.9915,none
70,2023-04-14_15h41.51.425,0414_04,5,7,2,w,0.332,none,YR,False,1681458111.4252,none
71,2023-04-14_15h41.53.974,0414_04,5,8,2,w,0.4504,none,YL,False,1681458113.9749,none
72,2023-04-14_15h41.56.475,0414_04,5,9,2,w,0.3962,none,YR,False,1681458116.4752,none
73,2023-04-14_15h41.58.975,0414_04,5,10,2,w,0.3992,none,YL,False,1681458118.9751,none
74,2023-04-14_15h42.01.491,0414_04,5,11,2,w,0.4203,none,YR,False,1681458121.4911,none
75,2023-04-14_15h42.03.941,0414_04,5,12,2,w,0.3521,none,YL,False,1681458123.9417,none
76,2023-04-14_15h42.06.508,0414_04,5,13,1,p,0.4777,none,BR,False,1681458126.5085,none
77,2023-04-14_15h42.08.891,0414_04,5,14,1,p,0.2875,none,BL,False,1681458128.8916,none
78,2023-04-14_15h42.11.308,0414_04,5,15,1,p,0.3197,none,BL,False,1681458131.3089,none
79,2023-04-14_15h42.13.741,0414_04,5,16,1,p,0.3349,none,BR,False,1681458133.7416,none
80,2023-04-14_15h43.25.126,0414_04,6,1,1,p,0.3023,none,BR,False,1681458205.1265,none
81,2023-04-14_15h43.27.991,0414_04,6,2,2,w,0.5661,0.7455,YR,True,1681458207.9918,none
82,2023-04-14_15h43.30.857,0414_04,6,3,2,w,0.5076,0.7599,YL,True,1681458210.8579,none
83,2023-04-14_15h43.33.709,0414_04,6,4,2,w,0.4249,0.7479,YR,True,1681458213.7095,none
84,2023-04-14_15h43.36.108,0414_04,6,5,1,p,0.3024,none,BR,False,1681458216.1081,none
85,2023-04-14_15h43.38.974,0414_04,6,6,2,w,0.4628,0.7504,YL,True,1681458218.9747,none
86,2023-04-14_15h43.41.841,0414_04,6,7,2,w,0.3641,0.7576,YR,True,1681458221.8418,none
87,2023-04-14_15h43.44.725,0414_04,6,8,2,w,0.3453,0.7615,YL,True,1681458224.7254,none
88,2023-04-14_15h43.47.576,0414_04,6,9,2,w,0.3262,0.7511,YL,True,1681458227.5763,none
89,2023-04-14_15h43.50.075,0414_04,6,10,1,p,0.3962,none,BR,False,1681458230.0756,none
90,2023-04-14_15h43.52.592,0414_04,6,11,1,p,0.4241,none,BL,False,1681458232.5924,none
91,2023-04-14_15h43.55.241,0414_04,6,12,1,p,0.5465,none,BL,False,1681458235.2413,none
92,2023-04-14_15h43.57.691,0414_04,6,13,1,p,0.3544,none,BR,False,1681458237.6911,none
93,2023-04-14_15h44.00.142,0414_04,6,14,1,p,0.3518,none,BL,False,1681458240.1423,none
94,2023-04-14_15h44.02.574,0414_04,6,15,1,p,0.3411,none,BL,False,1681458242.5748,none
95,2023-04-14_15h44.04.975,0414_04,6,16,2,p,0.3075,0.7604,YR,True,1681458244.9752,Wrong_press
96,2023-04-14_15h44.36.425,0414_04,7,1,2,w,0.4663,0.7084,YR,True,1681458276.4251,none
97,2023-04-14_15h44.38.908,0414_04,7,2,1,p,0.378,none,BL,False,1681458278.9088,none
98,2023-04-14_15h44.41.392,0414_04,7,3,1,p,0.3821,none,BR,False,1681458281.392,none
99,2023-04-14_15h44.44.208,0414_04,7,4,2,w,0.6272,0.7103,YL,True,1681458284.2086,none
100,2023-04-14_15h44.47.041,0414_04,7,5,2,w,0.4671,0.727,YL,True,1681458287.0418,none
101,2023-04-14_15h44.49.875,0414_04,7,6,2,w,0.4174,0.7277,YR,True,1681458289.8753,none
102,2023-04-14_15h44.52.708,0414_04,7,7,2,w,0.3679,0.7135,YR,True,1681458292.7087,none
103,2023-04-14_15h44.55.358,0414_04,7,8,1,p,0.5506,none,BL,False,1681458295.3589,none
104,2023-04-14_15h44.58.209,0414_04,7,9,2,w,0.3963,0.7331,YL,True,1681458298.2094,none
105,2023-04-14_15h45.00.558,0414_04,7,10,1,p,0.2587,none,BL,False,1681458300.5587,none
106,2023-04-14_15h45.03.125,0414_04,7,11,1,p,0.4768,none,BR,False,1681458303.1251,none
107,2023-04-14_15h45.05.525,0414_04,7,12,1,p,0.3097,none,BL,False,1681458305.526,none
108,2023-04-14_15h45.07.908,0414_04,7,13,1,p,0.2939,none,BR,False,1681458307.909,none
109,2023-04-14_15h45.10.308,0414_04,7,14,1,p,0.3108,none,BR,False,1681458310.3083,none
110,2023-04-14_15h45.13.142,0414_04,7,15,2,w,0.3422,0.7312,YR,True,1681458313.1423,none
111,2023-04-14_15h45.15.976,0414_04,7,16,2,w,0.397,0.7132,YL,True,1681458315.9761,none
112,2023-04-14_15h45.52.858,0414_04,8,1,2,w,0.4814,0.6949,YR,True,1681458352.8585,none
113,2023-04-14_15h45.55.426,0414_04,8,2,1,p,0.4648,none,BR,False,1681458355.4268,none
114,2023-04-14_15h45.57.909,0414_04,8,3,1,p,0.3858,none,BL,False,1681458357.9093,none
115,2023-04-14_15h46.00.725,0414_04,8,4,2,w,0.3906,0.7136,YR,True,1681458360.7253,none
116,2023-04-14_15h46.03.125,0414_04,8,5,1,p,0.3096,none,BR,False,1681458363.1263,none
117,2023-04-14_15h46.05.925,0414_04,8,6,2,w,0.4296,0.6873,YR,True,1681458365.9257,none
118,2023-04-14_15h46.08.308,0414_04,8,7,1,p,0.2854,none,BL,False,1681458368.3089,none
119,2023-04-14_15h46.11.091,0414_04,8,8,2,w,0.5669,0.676,YL,True,1681458371.0917,none
120,2023-04-14_15h46.13.925,0414_04,8,9,2,w,0.5824,0.7108,YR,True,1681458373.9259,none
121,2023-04-14_15h46.16.275,0414_04,8,10,1,p,0.254,none,BL,False,1681458376.2757,none
122,2023-04-14_15h46.19.092,0414_04,8,11,2,w,0.496,0.7015,YL,True,1681458379.0923,none
123,2023-04-14_15h46.21.475,0414_04,8,12,1,p,0.2868,none,BL,False,1681458381.4752,none
124,2023-04-14_15h46.23.975,0414_04,8,13,1,p,0.4082,none,BR,False,1681458383.9759,none
125,2023-04-14_15h46.26.809,0414_04,8,14,2,w,0.5478,0.7109,YL,True,1681458386.8095,none
126,2023-04-14_15h46.29.476,0414_04,8,15,1,p,0.5705,none,BR,False,1681458389.4771,none
127,2023-04-14_15h46.32.276,0414_04,8,16,2,w,0.4153,0.6865,YL,True,1681458392.2764,none
128,2023-04-14_15h47.08.709,0414_04,9,1,2,w,0.3976,0.6653,YR,True,1681458428.7093,none
129,2023-04-14_15h47.11.142,0414_04,9,2,1,p,0.3424,none,BL,False,1681458431.1426,none
130,2023-04-14_15h47.13.909,0414_04,9,3,2,w,0.4529,0.6605,YR,True,1681458433.9095,none
131,2023-04-14_15h47.16.676,0414_04,9,4,2,w,0.5183,0.6591,YL,True,1681458436.6764,none
132,2023-04-14_15h47.19.460,0414_04,9,5,2,w,0.3188,0.6726,YL,True,1681458439.4601,none
133,2023-04-14_15h47.22.226,0414_04,9,6,2,w,0.3837,0.656,YL,True,1681458442.2262,none
134,2023-04-14_15h47.24.658,0414_04,9,7,1,p,0.3376,none,BR,False,1681458444.6589,none
135,2023-04-14_15h47.27.442,0414_04,9,8,2,w,0.4327,0.6689,YR,True,1681458447.4422,none
136,2023-04-14_15h47.30.208,0414_04,9,9,2,w,0.4408,0.6527,YR,True,1681458450.2086,none
137,2023-04-14_15h47.33.009,0414_04,9,10,2,w,0.3702,0.6859,YL,True,1681458453.0091,none
138,2023-04-14_15h47.35.542,0414_04,9,11,1,p,0.4347,none,BR,False,1681458455.5427,none
139,2023-04-14_15h47.37.975,0414_04,9,12,1,p,0.3328,none,BL,False,1681458457.9758,none
140,2023-04-14_15h47.40.375,0414_04,9,13,1,p,0.3075,none,BL,False,1681458460.3754,none
141,2023-04-14_15h47.42.808,0414_04,9,14,1,p,0.3394,none,BR,False,1681458462.8089,none
142,2023-04-14_15h47.45.159,0414_04,9,15,1,p,0.2501,none,BL,False,1681458465.1593,none
143,2023-04-14_15h47.47.492,0414_04,9,16,1,p,0.2441,none,BR,False,1681458467.4926,none
144,2023-04-14_15h48.22.375,0414_04,10,1,2,w,0.3944,0.6378,YL,True,1681458502.3755,none
145,2023-04-14_15h48.24.809,0414_04,10,2,1,p,0.3309,none,BR,False,1681458504.8099,none
146,2023-04-14_15h48.27.543,0414_04,10,3,2,w,0.3948,0.6085,YR,True,1681458507.5432,none
147,2023-04-14_15h48.30.326,0414_04,10,4,2,w,0.4999,0.6638,YR,True,1681458510.3261,none
148,2023-04-14_15h48.32.792,0414_04,10,5,1,p,0.3731,none,BL,False,1681458512.7928,none
149,2023-04-14_15h48.35.525,0414_04,10,6,2,w,0.5872,0.6228,YL,True,1681458515.5255,none
150,2023-04-14_15h48.37.876,0414_04,10,7,1,p,0.2449,none,BL,False,1681458517.8761,none
151,2023-04-14_15h48.40.625,0414_04,10,8,2,w,0.4631,0.629,YR,True,1681458520.6258,none
152,2023-04-14_15h48.43.409,0414_04,10,9,2,w,0.4174,0.6645,YL,True,1681458523.4097,none
153,2023-04-14_15h48.45.726,0414_04,10,10,1,p,0.2261,none,BR,False,1681458525.726,none
154,2023-04-14_15h48.48.243,0414_04,10,11,1,p,0.4133,none,BL,False,1681458528.2431,none
155,2023-04-14_15h48.50.993,0414_04,10,12,2,w,0.4968,0.6395,YL,True,1681458530.9935,none
156,2023-04-14_15h48.53.293,0414_04,10,13,1,p,0.2107,none,BL,False,1681458533.2934,none
157,2023-04-14_15h48.55.709,0414_04,10,14,1,p,0.3187,none,BR,False,1681458535.7094,none
158,2023-04-14_15h48.58.459,0414_04,10,15,2,w,0.5979,0.6312,YR,True,1681458538.459,none
159,2023-04-14_15h49.00.876,0414_04,10,16,1,p,0.3122,none,BR,False,1681458540.8768,none
160,2023-04-14_15h49.53.009,0414_04,11,1,2,w,0.7265,0.5785,YL,True,1681458593.0096,none
161,2023-04-14_15h49.55.392,0414_04,11,2,1,p,0.2813,none,BR,False,1681458595.3922,none
162,2023-04-14_15h49.58.108,0414_04,11,3,2,w,0.58,0.6077,YR,True,1681458598.1081,none
163,2023-04-14_15h50.00.542,0414_04,11,4,1,p,0.3338,none,BR,False,1681458600.5426,none
164,2023-04-14_15h50.03.242,0414_04,11,5,2,w,0.3004,0.583,YL,True,1681458603.2427,none
165,2023-04-14_15h50.05.992,0414_04,11,6,2,w,0.5365,0.6413,YR,True,1681458605.9929,none
166,2023-04-14_15h50.08.744,0414_04,11,7,2,w,0.4348,0.6417,YL,True,1681458608.744,none
167,2023-04-14_15h50.11.426,0414_04,11,8,2,w,0.4602,0.5817,YR,True,1681458611.4267,none
168,2023-04-14_15h50.13.792,0414_04,11,9,1,p,0.2737,none,BL,False,1681458613.7924,none
169,2023-04-14_15h50.16.226,0414_04,11,10,1,p,0.3387,none,BL,False,1681458616.2267,none
170,2023-04-14_15h50.18.609,0414_04,11,11,1,p,0.2889,none,BR,False,1681458618.6095,none
171,2023-04-14_15h50.20.927,0414_04,11,12,2,p,0.2178,0.6301,YL,True,1681458620.9276,Wrong_press
172,2023-04-14_15h50.23.426,0414_04,11,13,1,p,0.3972,none,BR,False,1681458623.4266,none
173,2023-04-14_15h50.26.126,0414_04,11,14,2,w,0.3848,0.5939,YR,True,1681458626.1263,none
174,2023-04-14_15h50.28.544,0414_04,11,15,1,p,0.3248,none,BL,False,1681458628.5443,none
175,2023-04-14_15h50.30.925,0414_04,11,16,1,p,0.2925,none,BL,False,1681458630.9265,none
176,2023-04-14_15h51.07.259,0414_04,12,1,2,w,0.4752,0.5862,YR,True,1681458667.2594,none
177,2023-04-14_15h51.09.692,0414_04,12,2,1,p,0.3436,none,BR,False,1681458669.6929,none
178,2023-04-14_15h51.12.143,0414_04,12,3,1,p,0.3579,none,BL,False,1681458672.1435,none
179,2023-04-14_15h51.14.626,0414_04,12,4,1,p,0.3873,none,BL,False,1681458674.6263,none
180,2023-04-14_15h51.17.292,0414_04,12,5,1,p,0.5684,none,BR,False,1681458677.2927,none
181,2023-04-14_15h51.19.726,0414_04,12,6,1,p,0.3343,none,BR,False,1681458679.7261,none
182,2023-04-14_15h51.22.376,0414_04,12,7,2,w,0.5253,0.5418,YL,True,1681458682.3761,none
183,2023-04-14_15h51.24.927,0414_04,12,8,1,p,0.4511,none,BR,False,1681458684.9271,none
184,2023-04-14_15h51.27.309,0414_04,12,9,1,p,0.285,none,BL,False,1681458687.3096,none
185,2023-04-14_15h51.29.708,0414_04,12,10,1,p,0.3095,none,BL,False,1681458689.7088,none
186,2023-04-14_15h51.32.375,0414_04,12,11,2,w,0.3487,0.5562,YL,True,1681458692.376,none
187,2023-04-14_15h51.35.109,0414_04,12,12,2,w,0.3471,0.6141,YR,True,1681458695.1093,none
188,2023-04-14_15h51.37.793,0414_04,12,13,2,w,0.3177,0.567,YR,True,1681458697.7934,none
189,2023-04-14_15h51.40.476,0414_04,12,14,2,w,0.4021,0.566,YL,True,1681458700.4767,none
190,2023-04-14_15h51.43.126,0414_04,12,15,2,w,0.3908,0.5393,YL,True,1681458703.1265,none
191,2023-04-14_15h51.45.776,0414_04,12,16,2,w,0.2924,0.5395,YR,True,1681458705.7767,none
192,2023-04-14_15h52.18.610,0414_04,13,1,1,p,0.3142,none,BL,False,1681458738.6101,none
193,2023-04-14_15h52.21.143,0414_04,13,2,1,p,0.4409,none,BR,False,1681458741.1437,none
194,2023-04-14_15h52.23.576,0414_04,13,3,1,p,0.3403,none,BR,False,1681458743.5769,none
195,2023-04-14_15h52.25.893,0414_04,13,4,2,p,0.2186,0.552,YL,True,1681458745.8936,Wrong_press
196,2023-04-14_15h52.28.559,0414_04,13,5,2,w,0.5252,0.5543,YL,True,1681458748.5598,none
197,2023-04-14_15h52.31.043,0414_04,13,6,1,p,0.3794,none,BL,False,1681458751.0435,none
198,2023-04-14_15h52.33.709,0414_04,13,7,2,w,0.3765,0.5687,YR,True,1681458753.71,none
199,2023-04-14_15h52.36.410,0414_04,13,8,2,w,0.3655,0.5826,YR,True,1681458756.4103,none
200,2023-04-14_15h52.39.059,0414_04,13,9,2,w,0.3531,0.5322,YR,True,1681458759.0596,none
201,2023-04-14_15h52.41.494,0414_04,13,10,1,p,0.3437,none,BR,False,1681458761.4945,none
202,2023-04-14_15h52.44.143,0414_04,13,11,2,w,0.3501,0.5299,YL,True,1681458764.1431,none
203,2023-04-14_15h52.46.844,0414_04,13,12,2,w,0.3081,0.5957,YL,True,1681458766.8442,none
204,2023-04-14_15h52.49.310,0414_04,13,13,1,p,0.368,none,BL,False,1681458769.3103,none
205,2023-04-14_15h52.51.926,0414_04,13,14,2,w,0.2934,0.5072,YR,True,1681458771.9262,none
206,2023-04-14_15h52.54.292,0414_04,13,15,1,p,0.2678,none,BL,False,1681458774.2928,none
207,2023-04-14_15h52.56.726,0414_04,13,16,1,p,0.334,none,BR,False,1681458776.7268,none
208,2023-04-14_15h53.31.659,0414_04,14,1,2,w,0.3536,none,YL,False,1681458811.6594,none
209,2023-04-14_15h53.34.059,0414_04,14,2,2,w,0.3103,none,YL,False,1681458814.0593,none
210,2023-04-14_15h53.36.576,0414_04,14,3,1,p,0.415,none,BR,False,1681458816.5763,none
211,2023-04-14_15h53.38.977,0414_04,14,4,1,p,0.2984,none,BL,False,1681458818.9772,none
212,2023-04-14_15h53.41.609,0414_04,14,5,2,w,0.5389,none,YR,False,1681458821.6094,none
213,2023-04-14_15h53.44.076,0414_04,14,6,1,p,0.3612,none,BL,False,1681458824.0762,none
214,2023-04-14_15h53.46.644,0414_04,14,7,2,w,0.4624,none,YL,False,1681458826.644,none
215,2023-04-14_15h53.48.993,0414_04,14,8,1,p,0.2484,none,BR,False,1681458828.9936,none
216,2023-04-14_15h53.51.443,0414_04,14,9,2,w,0.3542,none,YR,False,1681458831.4436,none
217,2023-04-14_15h53.53.876,0414_04,14,10,2,w,0.3436,none,YR,False,1681458833.8767,none
218,2023-04-14_15h53.56.377,0414_04,14,11,1,p,0.4064,none,BR,False,1681458836.377,none
219,2023-04-14_15h53.58.826,0414_04,14,12,2,w,0.3464,none,YR,False,1681458838.8261,none
220,2023-04-14_15h54.01.226,0414_04,14,13,1,p,0.3039,none,BR,False,1681458841.2263,none
221,2023-04-14_15h54.03.611,0414_04,14,14,1,p,0.2888,none,BL,False,1681458843.6115,none
222,2023-04-14_15h54.05.893,0414_04,14,15,1,p,0.185,none,BL,False,1681458845.8932,none
223,2023-04-14_15h54.08.442,0414_04,14,16,2,w,0.4458,none,YL,False,1681458848.4429,none
224,2023-04-14_15h54.46.076,0414_04,15,1,1,p,0.3946,none,BL,False,1681458886.077,none
225,2023-04-14_15h54.48.927,0414_04,15,2,2,w,0.7373,0.4954,YR,True,1681458888.9271,none
226,2023-04-14_15h54.51.311,0414_04,15,3,1,p,0.2844,none,BR,False,1681458891.3116,none
227,2023-04-14_15h54.53.927,0414_04,15,4,2,w,0.5013,0.4847,YL,True,1681458893.9275,none
228,2023-04-14_15h54.56.310,0414_04,15,5,1,p,0.292,none,BR,False,1681458896.3102,none
229,2023-04-14_15h54.59.093,0414_04,15,6,2,w,0.6827,0.5562,YR,True,1681458899.0933,none
230,2023-04-14_15h55.01.461,0414_04,15,7,1,p,0.2697,none,BL,False,1681458901.4617,none
231,2023-04-14_15h55.04.109,0414_04,15,8,2,w,0.3669,0.5292,YR,True,1681458904.1098,none
232,2023-04-14_15h55.06.560,0414_04,15,9,1,p,0.3495,none,BR,False,1681458906.5605,none
233,2023-04-14_15h55.09.242,0414_04,15,10,2,w,0.5141,0.5637,YL,True,1681458909.2429,none
234,2023-04-14_15h55.11.660,0414_04,15,11,1,p,0.3118,none,BL,False,1681458911.6601,none
235,2023-04-14_15h55.14.044,0414_04,15,12,1,p,0.279,none,BR,False,1681458914.0442,none
236,2023-04-14_15h55.16.393,0414_04,15,13,1,p,0.2482,none,BL,False,1681458916.3936,none
237,2023-04-14_15h55.18.993,0414_04,15,14,2,w,0.3377,0.4945,YR,True,1681458918.994,none
238,2023-04-14_15h55.21.677,0414_04,15,15,2,w,0.3134,0.5644,YL,True,1681458921.677,none
239,2023-04-14_15h55.24.359,0414_04,15,16,2,w,0.3344,0.5704,YL,True,1681458924.3597,none
240,2023-04-14_15h56.06.010,0414_04,16,1,2,w,0.3547,0.5279,YL,True,1681458966.0109,none
241,2023-04-14_15h56.08.410,0414_04,16,2,1,p,0.2967,none,BR,False,1681458968.4105,none
242,2023-04-14_15h56.10.811,0414_04,16,3,1,p,0.3052,none,BL,False,1681458970.8114,none
243,2023-04-14_15h56.13.161,0414_04,16,4,1,p,0.257,none,BR,False,1681458973.1612,none
244,2023-04-14_15h56.15.544,0414_04,16,5,1,p,0.2831,none,BR,False,1681458975.5444,none
245,2023-04-14_15h56.18.176,0414_04,16,6,2,w,0.4439,0.5299,YR,True,1681458978.1765,none
246,2023-04-14_15h56.20.744,0414_04,16,7,2,w,0.4575,0.4409,YL,True,1681458980.7441,none
247,2023-04-14_15h56.23.610,0414_04,16,8,1,p,0.7716,none,BL,False,1681458983.6102,none
248,2023-04-14_15h56.25.976,0414_04,16,9,1,p,0.2652,none,BL,False,1681458985.9765,none
249,2023-04-14_15h56.28.593,0414_04,16,10,2,w,0.3537,0.5064,YL,True,1681458988.5939,none
250,2023-04-14_15h56.31.227,0414_04,16,11,2,w,0.5143,0.512,YL,True,1681458991.2274,none
251,2023-04-14_15h56.33.710,0414_04,16,12,1,w,0.3915,none,BR,False,1681458993.7106,Wrong_press
252,2023-04-14_15h56.36.309,0414_04,16,13,2,w,0.485,0.4508,YR,True,1681458996.31,none
253,2023-04-14_15h56.38.660,0414_04,16,14,1,p,0.2521,none,BL,False,1681458998.6606,none
254,2023-04-14_15h56.41.293,0414_04,16,15,2,w,0.4631,0.51,YR,True,1681459001.2931,none
255,2023-04-14_15h56.43.877,0414_04,16,16,2,w,0.4768,0.4746,YR,True,1681459003.878,none
256,2023-04-14_15h57.17.361,0414_04,17,1,1,p,0.249,none,BL,False,1681459037.3616,none
257,2023-04-14_15h57.20.077,0414_04,17,2,2,w,0.6181,none,YL,False,1681459040.0775,none
258,2023-04-14_15h57.22.710,0414_04,17,3,2,w,0.534,none,YR,False,1681459042.7105,none
259,2023-04-14_15h57.25.159,0414_04,17,4,1,p,0.3566,none,BL,False,1681459045.1599,none
260,2023-04-14_15h57.27.577,0414_04,17,5,1,p,0.3152,none,BL,False,1681459047.5772,none
261,2023-04-14_15h57.30.127,0414_04,17,6,2,w,0.4492,none,YR,False,1681459050.1275,none
262,2023-04-14_15h57.32.578,0414_04,17,7,2,w,0.3483,none,YL,False,1681459052.5782,none
263,2023-04-14_15h57.34.994,0414_04,17,8,1,p,0.3222,none,BR,False,1681459054.9947,none
264,2023-04-14_15h57.37.493,0414_04,17,9,1,p,0.4095,none,BR,False,1681459057.4937,none
265,2023-04-14_15h57.39.860,0414_04,17,10,1,p,0.2697,none,BR,False,1681459059.8604,none
266,2023-04-14_15h57.42.243,0414_04,17,11,1,p,0.2787,none,BR,False,1681459062.2439,none
267,2023-04-14_15h57.44.894,0414_04,17,12,2,w,0.5591,none,YL,False,1681459064.8943,none
268,2023-04-14_15h57.47.844,0414_04,17,13,2,w,0.8454,none,YL,False,1681459067.8447,none
269,2023-04-14_15h57.50.377,0414_04,17,14,2,w,0.439,none,YR,False,1681459070.377,none
270,2023-04-14_15h57.52.861,0414_04,17,15,1,p,0.3858,none,BL,False,1681459072.861,none
271,2023-04-14_15h57.55.611,0414_04,17,16,2,w,0.6545,none,YR,False,1681459075.6118,none
272,2023-04-14_15h58.32.610,0414_04,18,1,1,p,0.3467,none,BR,False,1681459112.6109,none
273,2023-04-14_15h58.34.977,0414_04,18,2,1,p,0.2648,none,BL,False,1681459114.9771,none
274,2023-04-14_15h58.37.327,0414_04,18,3,1,p,0.2577,none,BL,False,1681459117.3271,none
275,2023-04-14_15h58.39.643,0414_04,18,4,1,p,0.2271,none,BL,False,1681459119.6439,none
276,2023-04-14_15h58.42.194,0414_04,18,5,2,w,0.4329,0.4304,YL,True,1681459122.1944,none
277,2023-04-14_15h58.44.711,0414_04,18,6,2,w,0.3531,0.4135,YR,True,1681459124.711,none
278,2023-04-14_15h58.47.327,0414_04,18,7,2,w,0.3249,0.5123,YL,True,1681459127.3278,none
279,2023-04-14_15h58.49.927,0414_04,18,8,2,w,0.3477,0.4893,YR,True,1681459129.9278,none
280,2023-04-14_15h58.52.377,0414_04,18,9,1,p,0.3559,none,BR,False,1681459132.3772,none
281,2023-04-14_15h58.54.894,0414_04,18,10,2,w,0.3931,0.4044,YR,True,1681459134.8944,none
282,2023-04-14_15h58.57.494,0414_04,18,11,2,w,0.3249,0.5012,YL,True,1681459137.494,none
283,2023-04-14_15h59.00.011,0414_04,18,12,2,w,0.4049,0.4065,YL,True,1681459140.011,none
284,2023-04-14_15h59.02.560,0414_04,18,13,2,w,0.3443,0.4406,YR,True,1681459142.561,none
285,2023-04-14_15h59.05.045,0414_04,18,14,1,p,0.3784,none,BR,False,1681459145.0455,none
286,2023-04-14_15h59.07.460,0414_04,18,15,1,p,0.3193,none,BR,False,1681459147.4607,none
287,2023-04-14_15h59.09.793,0414_04,18,16,1,p,0.2305,none,BL,False,1681459149.7938,none
288,2023-04-14_15h59.45.911,0414_04,19,1,2,w,0.3607,0.4195,YR,True,1681459185.9112,none
289,2023-04-14_15h59.48.160,0414_04,19,2,1,p,0.1571,none,BL,False,1681459188.1609,none
290,2023-04-14_15h59.50.529,0414_04,19,3,2,p,0.2742,0.4409,YL,True,1681459190.5291,Wrong_press
291,2023-04-14_15h59.53.027,0414_04,19,4,2,w,0.3239,0.3969,YR,True,1681459193.0275,none
292,2023-04-14_15h59.55.727,0414_04,19,5,2,w,0.5937,0.4194,YR,True,1681459195.7279,none
293,2023-04-14_15h59.58.060,0414_04,19,6,1,p,0.2435,none,BR,False,1681459198.0608,none
294,2023-04-14_16h00.00.362,0414_04,19,7,1,p,0.2065,none,BR,False,1681459200.362,none
295,2023-04-14_16h00.02.744,0414_04,19,8,1,p,0.2822,none,BL,False,1681459202.7443,none
296,2023-04-14_16h00.05.443,0414_04,19,9,2,w,0.5905,0.3797,YL,True,1681459205.4436,none
297,2023-04-14_16h00.08.027,0414_04,19,10,2,w,0.4716,0.459,YL,True,1681459208.0276,none
298,2023-04-14_16h00.10.361,0414_04,19,11,1,p,0.2393,none,BL,False,1681459210.3613,none
299,2023-04-14_16h00.12.827,0414_04,19,12,1,p,0.3621,none,BR,False,1681459212.8278,none
300,2023-04-14_16h00.15.395,0414_04,19,13,2,w,0.4551,0.408,YL,True,1681459215.3951,none
301,2023-04-14_16h00.17.794,0414_04,19,14,1,p,0.3049,none,BL,False,1681459217.7945,none
302,2023-04-14_16h00.20.478,0414_04,19,15,2,w,0.5751,0.3743,YR,True,1681459220.4782,none
303,2023-04-14_16h00.22.844,0414_04,19,16,1,p,0.2616,none,BR,False,1681459222.8443,none
304,2023-04-14_16h00.58.362,0414_04,20,1,2,w,0.419,0.354,YL,True,1681459258.3621,none
305,2023-04-14_16h01.00.894,0414_04,20,2,2,w,0.4259,0.4281,YR,True,1681459260.8945,none
306,2023-04-14_16h01.03.493,0414_04,20,3,2,w,0.4042,0.4702,YL,True,1681459263.494,none
307,2023-04-14_16h01.05.877,0414_04,20,4,1,p,0.2928,none,BL,False,1681459265.8776,none
308,2023-04-14_16h01.08.211,0414_04,20,5,1,p,0.2297,none,BR,False,1681459268.2119,none
309,2023-04-14_16h01.10.528,0414_04,20,6,1,p,0.2244,none,BL,False,1681459270.5281,none
310,2023-04-14_16h01.12.978,0414_04,20,7,2,w,0.2676,0.3367,YR,True,1681459272.9783,none
311,2023-04-14_16h01.15.393,0414_04,20,8,1,p,0.3134,none,BL,False,1681459275.394,none
312,2023-04-14_16h01.17.761,0414_04,20,9,1,p,0.2651,none,BR,False,1681459277.7612,none
313,2023-04-14_16h01.20.311,0414_04,20,10,2,w,0.4263,0.4373,YL,True,1681459280.3114,none
314,2023-04-14_16h01.22.678,0414_04,20,11,1,p,0.2766,none,BL,False,1681459282.6781,none
315,2023-04-14_16h01.25.095,0414_04,20,12,1,p,0.3176,none,BR,False,1681459285.0951,none
316,2023-04-14_16h01.27.493,0414_04,20,13,1,p,0.3008,none,BR,False,1681459287.4938,none
317,2023-04-14_16h01.30.010,0414_04,20,14,2,w,0.3997,0.3453,YL,True,1681459290.0109,none
318,2023-04-14_16h01.32.527,0414_04,20,15,2,w,0.36,0.4127,YR,True,1681459292.5277,none
319,2023-04-14_16h01.35.060,0414_04,20,16,2,w,0.4257,0.4072,YR,True,1681459295.0607,none
