,timestamp,experiment_ID,block_ID,stimulus_ID,subject,key_press,rt,fake_human_rt,trial_stim,fake_or_not,UNIX_time,wrong_type
0,2023-04-13_13h36.19.036,0413_03,1,1,1,p,0.3465,none,BR,False,1681364179.0366,none
1,2023-04-13_13h36.21.586,0413_03,1,2,1,p,0.4487,none,BL,False,1681364181.5867,none
2,2023-04-13_13h36.24.119,0413_03,1,3,2,w,0.4427,none,YL,False,1681364184.1196,none
3,2023-04-13_13h36.26.737,0413_03,1,4,2,w,0.5095,none,YR,False,1681364186.7373,none
4,2023-04-13_13h36.29.253,0413_03,1,5,2,w,0.4199,none,YR,False,1681364189.2533,none
5,2023-04-13_13h36.31.786,0413_03,1,6,2,w,0.4404,none,YL,False,1681364191.7865,none
6,2023-04-13_13h36.34.236,0413_03,1,7,2,w,0.3468,none,YR,False,1681364194.2361,none
7,2023-04-13_13h36.36.719,0413_03,1,8,1,p,0.3847,none,BR,False,1681364196.7194,none
8,2023-04-13_13h36.39.253,0413_03,1,9,2,w,0.437,none,YL,False,1681364199.2531,none
9,2023-04-13_13h36.41.803,0413_03,1,10,2,w,0.4562,none,YL,False,1681364201.8038,none
10,2023-04-13_13h36.44.219,0413_03,1,11,1,p,0.3137,none,BR,False,1681364204.2192,none
11,2023-04-13_13h36.46.620,0413_03,1,12,1,p,0.2973,none,BR,False,1681364206.62,none
12,2023-04-13_13h36.49.053,0413_03,1,13,1,p,0.3293,none,BL,False,1681364209.0531,none
13,2023-04-13_13h36.51.570,0413_03,1,14,2,w,0.4161,none,YR,False,1681364211.57,none
14,2023-04-13_13h36.54.003,0413_03,1,15,1,p,0.3404,none,BL,False,1681364214.0032,none
15,2023-04-13_13h36.56.619,0413_03,1,16,1,p,0.5215,none,BL,False,1681364216.6191,none
16,2023-04-13_13h37.32.853,0413_03,2,1,2,w,0.8039,none,YR,False,1681364252.8531,none
17,2023-04-13_13h37.35.320,0413_03,2,2,1,p,0.368,none,BR,False,1681364255.3203,none
18,2023-04-13_13h37.37.887,0413_03,2,3,2,w,0.4775,none,YL,False,1681364257.8872,none
19,2023-04-13_13h37.40.536,0413_03,2,4,2,w,0.5587,none,YR,False,1681364260.5363,none
20,2023-04-13_13h37.43.136,0413_03,2,5,2,w,0.5077,none,YL,False,1681364263.1361,none
21,2023-04-13_13h37.45.719,0413_03,2,6,2,w,0.4924,none,YR,False,1681364265.7196,none
22,2023-04-13_13h37.48.288,0413_03,2,7,1,p,0.477,none,BR,False,1681364268.2882,none
23,2023-04-13_13h37.50.769,0413_03,2,8,2,w,0.3822,none,YL,False,1681364270.7696,none
24,2023-04-13_13h37.53.236,0413_03,2,9,1,p,0.3713,none,BR,False,1681364273.236,none
25,2023-04-13_13h37.55.736,0413_03,2,10,2,w,0.4089,none,YL,False,1681364275.7366,none
26,2023-04-13_13h37.58.170,0413_03,2,11,2,w,0.34,none,YR,False,1681364278.1709,none
27,2023-04-13_13h38.00.670,0413_03,2,12,1,p,0.4029,none,BL,False,1681364280.6707,none
28,2023-04-13_13h38.03.137,0413_03,2,13,1,p,0.3672,none,BR,False,1681364283.1372,none
29,2023-04-13_13h38.05.570,0413_03,2,14,1,p,0.3403,none,BL,False,1681364285.5704,none
30,2023-04-13_13h38.08.020,0413_03,2,15,1,p,0.3551,none,BL,False,1681364288.0202,none
31,2023-04-13_13h38.10.486,0413_03,2,16,1,p,0.3693,none,BL,False,1681364290.4868,none
32,2023-04-13_13h38.43.603,0413_03,3,1,2,w,0.774,0.8078,YL,True,1681364323.6033,none
33,2023-04-13_13h38.46.287,0413_03,3,2,1,p,0.5778,none,BL,False,1681364326.2873,none
34,2023-04-13_13h38.49.202,0413_03,3,3,2,w,0.5577,0.8078,YR,True,1681364329.2027,none
35,2023-04-13_13h38.51.786,0413_03,3,4,1,p,0.4819,none,BR,False,1681364331.787,none
36,2023-04-13_13h38.54.387,0413_03,3,5,1,p,0.4985,none,BL,False,1681364334.3871,none
37,2023-04-13_13h38.57.304,0413_03,3,6,2,w,0.4665,0.8078,YL,True,1681364337.3043,none
38,2023-04-13_13h39.00.253,0413_03,3,7,2,w,0.5972,0.8078,YR,True,1681364340.254,none
39,2023-04-13_13h39.03.187,0413_03,3,8,2,w,0.3586,0.8078,YR,True,1681364343.1876,none
40,2023-04-13_13h39.05.687,0413_03,3,9,1,p,0.3932,none,BR,False,1681364345.6872,none
41,2023-04-13_13h39.08.204,0413_03,3,10,1,p,0.4054,none,BL,False,1681364348.2042,none
42,2023-04-13_13h39.11.119,0413_03,3,11,2,w,0.4347,0.8078,YR,True,1681364351.1197,none
43,2023-04-13_13h39.14.053,0413_03,3,12,2,w,0.4134,0.8078,YL,True,1681364354.0535,none
44,2023-04-13_13h39.16.970,0413_03,3,13,2,w,0.4711,0.8078,YL,True,1681364356.9704,none
45,2023-04-13_13h39.19.487,0413_03,3,14,1,p,0.411,none,BR,False,1681364359.487,none
46,2023-04-13_13h39.22.070,0413_03,3,15,1,p,0.4693,none,BL,False,1681364362.0706,none
47,2023-04-13_13h39.24.520,0413_03,3,16,1,p,0.3592,none,BR,False,1681364364.5201,none
48,2023-04-13_13h40.01.354,0413_03,4,1,1,p,0.4001,none,BR,False,1681364401.3543,none
49,2023-04-13_13h40.03.820,0413_03,4,2,1,p,0.3636,none,BR,False,1681364403.8202,none
50,2023-04-13_13h40.06.820,0413_03,4,3,2,w,0.8878,0.7743,YR,True,1681364406.8201,none
51,2023-04-13_13h40.09.353,0413_03,4,4,1,p,0.4411,none,BL,False,1681364409.353,none
52,2023-04-13_13h40.12.254,0413_03,4,5,2,w,0.4674,0.7793,YL,True,1681364412.2543,none
53,2023-04-13_13h40.14.854,0413_03,4,6,1,p,0.4958,none,BR,False,1681364414.8545,none
54,2023-04-13_13h40.17.736,0413_03,4,7,2,w,0.3913,0.7739,YL,True,1681364417.7366,none
55,2023-04-13_13h40.20.620,0413_03,4,8,2,w,0.4677,0.7727,YR,True,1681364420.6205,none
56,2023-04-13_13h40.23.152,0413_03,4,9,1,p,0.4328,none,BR,False,1681364423.1526,none
57,2023-04-13_13h40.26.036,0413_03,4,10,2,w,0.4675,0.7754,YL,True,1681364426.0368,none
58,2023-04-13_13h40.28.936,0413_03,4,11,2,w,0.4477,0.7801,YR,True,1681364428.9369,none
59,2023-04-13_13h40.31.487,0413_03,4,12,1,p,0.4443,none,BL,False,1681364431.4872,none
60,2023-04-13_13h40.34.388,0413_03,4,13,2,w,0.438,0.784,YL,True,1681364434.3881,none
61,2023-04-13_13h40.36.854,0413_03,4,14,1,p,0.3606,none,BL,False,1681364436.8543,none
62,2023-04-13_13h40.39.353,0413_03,4,15,1,p,0.4079,none,BL,False,1681364439.3532,none
63,2023-04-13_13h40.42.253,0413_03,4,16,2,w,0.3863,0.78,YR,True,1681364442.2539,none
64,2023-04-13_13h41.16.853,0413_03,5,1,1,p,0.3035,none,BL,False,1681364476.8539,none
65,2023-04-13_13h41.19.720,0413_03,5,2,2,w,0.4959,0.7411,YR,True,1681364479.7204,none
66,2023-04-13_13h41.22.569,0413_03,5,3,2,w,0.5254,0.7453,YR,True,1681364482.5697,none
67,2023-04-13_13h41.25.419,0413_03,5,4,2,w,0.4022,0.7423,YR,True,1681364485.42,none
68,2023-04-13_13h41.28.286,0413_03,5,5,2,w,0.3686,0.7502,YL,True,1681364488.287,none
69,2023-04-13_13h41.30.803,0413_03,5,6,1,p,0.422,none,BR,False,1681364490.804,none
70,2023-04-13_13h41.33.687,0413_03,5,7,2,w,0.5451,0.7624,YL,True,1681364493.6874,none
71,2023-04-13_13h41.36.170,0413_03,5,8,1,p,0.3732,none,BL,False,1681364496.1702,none
72,2023-04-13_13h41.39.053,0413_03,5,9,2,w,0.4337,0.7613,YR,True,1681364499.0536,none
73,2023-04-13_13h41.41.920,0413_03,5,10,2,w,0.6396,0.7596,YL,True,1681364501.9203,none
74,2023-04-13_13h41.44.370,0413_03,5,11,1,p,0.3487,none,BL,False,1681364504.3703,none
75,2023-04-13_13h41.46.936,0413_03,5,12,1,p,0.4746,none,BR,False,1681364506.9366,none
76,2023-04-13_13h41.49.371,0413_03,5,13,1,p,0.3319,none,BR,False,1681364509.3714,none
77,2023-04-13_13h41.51.871,0413_03,5,14,1,p,0.4105,none,BL,False,1681364511.8713,none
78,2023-04-13_13h41.54.303,0413_03,5,15,1,p,0.3428,none,BR,False,1681364514.3039,none
79,2023-04-13_13h41.57.170,0413_03,5,16,2,w,0.365,0.7569,YL,True,1681364517.1702,none
80,2023-04-13_13h43.07.904,0413_03,6,1,1,p,0.3929,none,BR,False,1681364587.9049,none
81,2023-04-13_13h43.10.405,0413_03,6,2,1,p,0.3966,none,BL,False,1681364590.4053,none
82,2023-04-13_13h43.12.821,0413_03,6,3,1,p,0.3214,none,BR,False,1681364592.8216,none
83,2023-04-13_13h43.15.370,0413_03,6,4,2,w,0.4559,none,YR,False,1681364595.3706,none
84,2023-04-13_13h43.17.753,0413_03,6,5,1,p,0.2826,none,BL,False,1681364597.7538,none
85,2023-04-13_13h43.20.236,0413_03,6,6,1,p,0.3791,none,BL,False,1681364600.2368,none
86,2023-04-13_13h43.22.653,0413_03,6,7,1,p,0.3201,none,BR,False,1681364602.6539,none
87,2023-04-13_13h43.25.204,0413_03,6,8,2,w,0.4473,none,YR,False,1681364605.2043,none
88,2023-04-13_13h43.27.686,0413_03,6,9,1,p,0.385,none,BR,False,1681364607.6869,none
89,2023-04-13_13h43.30.254,0413_03,6,10,1,p,0.4776,none,BL,False,1681364610.2545,none
90,2023-04-13_13h43.32.805,0413_03,6,11,2,w,0.455,none,YL,False,1681364612.8056,none
91,2023-04-13_13h43.35.370,0413_03,6,12,2,w,0.4735,none,YR,False,1681364615.37,none
92,2023-04-13_13h43.37.853,0413_03,6,13,2,w,0.3864,none,YL,False,1681364617.8539,none
93,2023-04-13_13h43.40.305,0413_03,6,14,2,w,0.3589,none,YL,False,1681364620.305,none
94,2023-04-13_13h43.42.771,0413_03,6,15,2,w,0.3479,none,YL,False,1681364622.7718,none
95,2023-04-13_13h43.45.221,0413_03,6,16,2,w,0.3465,none,YR,False,1681364625.221,none
96,2023-04-13_13h44.15.687,0413_03,7,1,2,w,0.5106,0.7176,YL,True,1681364655.6877,none
97,2023-04-13_13h44.18.537,0413_03,7,2,2,w,0.7175,0.7292,YR,True,1681364658.5379,none
98,2023-04-13_13h44.21.354,0413_03,7,3,2,w,0.6038,0.7053,YL,True,1681364661.3543,none
99,2023-04-13_13h44.24.171,0413_03,7,4,2,w,0.5394,0.7127,YL,True,1681364664.1715,none
100,2023-04-13_13h44.26.604,0413_03,7,5,1,p,0.3385,none,BR,False,1681364666.6048,none
101,2023-04-13_13h44.29.054,0413_03,7,6,1,p,0.3452,none,BL,False,1681364669.0545,none
102,2023-04-13_13h44.31.554,0413_03,7,7,1,p,0.4068,none,BR,False,1681364671.5548,none
103,2023-04-13_13h44.33.988,0413_03,7,8,1,p,0.3382,none,BR,False,1681364673.9885,none
104,2023-04-13_13h44.36.838,0413_03,7,9,2,w,0.6014,0.7366,YL,True,1681364676.8386,none
105,2023-04-13_13h44.39.371,0413_03,7,10,1,p,0.4323,none,BR,False,1681364679.3713,none
106,2023-04-13_13h44.42.222,0413_03,7,11,2,w,0.7386,0.725,YR,True,1681364682.2221,none
107,2023-04-13_13h44.44.654,0413_03,7,12,1,p,0.344,none,BL,False,1681364684.6547,none
108,2023-04-13_13h44.47.470,0413_03,7,13,2,w,0.367,0.7025,YR,True,1681364687.4705,none
109,2023-04-13_13h44.49.904,0413_03,7,14,1,p,0.342,none,BL,False,1681364689.9049,none
110,2023-04-13_13h44.52.753,0413_03,7,15,2,w,0.3652,0.7405,YR,True,1681364692.7538,none
111,2023-04-13_13h44.55.270,0413_03,7,16,1,p,0.4109,none,BL,False,1681364695.2705,none
112,2023-04-13_13h45.30.588,0413_03,8,1,2,w,0.6742,0.6724,YR,True,1681364730.5886,none
113,2023-04-13_13h45.33.403,0413_03,8,2,2,w,0.4092,0.7173,YR,True,1681364733.4039,none
114,2023-04-13_13h45.36.187,0413_03,8,3,2,w,0.393,0.676,YL,True,1681364736.1872,none
115,2023-04-13_13h45.38.637,0413_03,8,4,1,p,0.3454,none,BR,False,1681364738.6372,none
116,2023-04-13_13h45.41.137,0413_03,8,5,1,p,0.3996,none,BR,False,1681364741.137,none
117,2023-04-13_13h45.43.755,0413_03,8,6,1,p,0.5151,none,BL,False,1681364743.7552,none
118,2023-04-13_13h45.46.571,0413_03,8,7,2,w,0.403,0.7107,YR,True,1681364746.5713,none
119,2023-04-13_13h45.49.154,0413_03,8,8,1,p,0.4898,none,BL,False,1681364749.1541,none
120,2023-04-13_13h45.51.687,0413_03,8,9,1,p,0.4349,none,BL,False,1681364751.688,none
121,2023-04-13_13h45.54.504,0413_03,8,10,2,w,0.3726,0.6857,YR,True,1681364754.5047,none
122,2023-04-13_13h45.57.337,0413_03,8,11,2,w,0.6531,0.7189,YL,True,1681364757.3374,none
123,2023-04-13_13h46.00.155,0413_03,8,12,2,w,0.4031,0.7088,YL,True,1681364760.1552,none
124,2023-04-13_13h46.02.971,0413_03,8,13,2,w,0.4189,0.7001,YL,True,1681364762.9718,none
125,2023-04-13_13h46.05.504,0413_03,8,14,1,p,0.4342,none,BR,False,1681364765.5041,none
126,2023-04-13_13h46.08.054,0413_03,8,15,1,p,0.4598,none,BR,False,1681364768.0553,none
127,2023-04-13_13h46.10.505,0413_03,8,16,1,p,0.3508,none,BL,False,1681364770.5053,none
128,2023-04-13_13h46.43.337,0413_03,9,1,2,w,0.5825,none,YL,False,1681364803.3373,none
129,2023-04-13_13h46.45.972,0413_03,9,2,2,w,0.539,none,YR,False,1681364805.9727,none
130,2023-04-13_13h46.48.471,0413_03,9,3,2,w,0.3933,none,YL,False,1681364808.4715,none
131,2023-04-13_13h46.50.970,0413_03,9,4,2,w,0.4059,none,YR,False,1681364810.9709,none
132,2023-04-13_13h46.53.453,0413_03,9,5,2,w,0.3848,none,YR,False,1681364813.4536,none
133,2023-04-13_13h46.55.954,0413_03,9,6,1,p,0.3993,none,BR,False,1681364815.9548,none
134,2023-04-13_13h46.58.355,0413_03,9,7,1,p,0.2984,none,BR,False,1681364818.3554,none
135,2023-04-13_13h47.01.005,0413_03,9,8,2,w,0.5469,none,YR,False,1681364821.0052,none
136,2023-04-13_13h47.03.505,0413_03,9,9,2,w,0.4005,none,YL,False,1681364823.5053,none
137,2023-04-13_13h47.06.171,0413_03,9,10,1,p,0.5648,none,BL,False,1681364826.171,none
138,2023-04-13_13h47.08.737,0413_03,9,11,2,w,0.4742,none,YL,False,1681364828.7376,none
139,2023-04-13_13h47.11.154,0413_03,9,12,1,p,0.3231,none,BR,False,1681364831.1549,none
140,2023-04-13_13h47.13.654,0413_03,9,13,1,p,0.4105,none,BL,False,1681364833.6543,none
141,2023-04-13_13h47.16.071,0413_03,9,14,1,p,0.3265,none,BL,False,1681364836.0711,none
142,2023-04-13_13h47.18.471,0413_03,9,15,1,p,0.3097,none,BR,False,1681364838.4713,none
143,2023-04-13_13h47.20.872,0413_03,9,16,1,p,0.3018,none,BL,False,1681364840.8723,none
144,2023-04-13_13h47.57.204,0413_03,10,1,1,p,0.3296,none,BL,False,1681364877.2044,none
145,2023-04-13_13h47.59.954,0413_03,10,2,2,w,0.3683,0.6374,YL,True,1681364879.9546,none
146,2023-04-13_13h48.02.421,0413_03,10,3,1,p,0.3622,none,BR,False,1681364882.4215,none
147,2023-04-13_13h48.05.205,0413_03,10,4,2,w,0.4874,0.6684,YR,True,1681364885.2054,none
148,2023-04-13_13h48.07.654,0413_03,10,5,1,p,0.3279,none,BR,False,1681364887.6549,none
149,2023-04-13_13h48.10.421,0413_03,10,6,2,w,0.5342,0.6493,YL,True,1681364890.4217,none
150,2023-04-13_13h48.12.822,0413_03,10,7,1,p,0.2958,none,BL,False,1681364892.8221,none
151,2023-04-13_13h48.15.338,0413_03,10,8,1,p,0.416,none,BL,False,1681364895.3382,none
152,2023-04-13_13h48.18.137,0413_03,10,9,2,w,0.3711,0.691,YR,True,1681364898.1373,none
153,2023-04-13_13h48.20.638,0413_03,10,10,1,p,0.395,none,BL,False,1681364900.6382,none
154,2023-04-13_13h48.23.154,0413_03,10,11,1,p,0.4152,none,BR,False,1681364903.1546,none
155,2023-04-13_13h48.25.938,0413_03,10,12,2,w,0.4901,0.6827,YL,True,1681364905.9381,none
156,2023-04-13_13h48.28.737,0413_03,10,13,2,w,0.3949,0.6823,YR,True,1681364908.7375,none
157,2023-04-13_13h48.31.321,0413_03,10,14,1,p,0.4829,none,BR,False,1681364911.3216,none
158,2023-04-13_13h48.34.121,0413_03,10,15,2,w,0.3959,0.6822,YR,True,1681364914.1211,none
159,2023-04-13_13h48.37.054,0413_03,10,16,2,w,0.8259,0.649,YL,True,1681364917.0545,none
160,2023-04-13_13h49.47.971,0413_03,11,1,1,p,0.3138,none,BL,False,1681364987.9713,none
161,2023-04-13_13h49.50.455,0413_03,11,2,1,p,0.3937,none,BR,False,1681364990.4558,none
162,2023-04-13_13h49.52.855,0413_03,11,3,1,p,0.3104,none,BR,False,1681364992.8551,none
163,2023-04-13_13h49.55.604,0413_03,11,4,2,w,0.558,0.6511,YR,True,1681364995.6044,none
164,2023-04-13_13h49.58.854,0413_03,11,5,2,w,1.1246,0.6141,YR,True,1681364998.8549,none
165,2023-04-13_13h50.01.523,0413_03,11,6,1,p,0.5661,none,BR,False,1681365001.523,none
166,2023-04-13_13h50.04.021,0413_03,11,7,1,p,0.3789,none,BL,False,1681365004.0219,none
167,2023-04-13_13h50.06.804,0413_03,11,8,2,w,0.5595,0.673,YL,True,1681365006.8049,none
168,2023-04-13_13h50.09.288,0413_03,11,9,1,p,0.3925,none,BL,False,1681365009.2889,none
169,2023-04-13_13h50.11.688,0413_03,11,10,1,p,0.3004,none,BL,False,1681365011.6891,none
170,2023-04-13_13h50.14.404,0413_03,11,11,2,w,0.4445,0.5982,YR,True,1681365014.4045,none
171,2023-04-13_13h50.17.121,0413_03,11,12,2,w,0.3842,0.5996,YR,True,1681365017.1214,none
172,2023-04-13_13h50.19.838,0413_03,11,13,2,w,0.4116,0.6032,YL,True,1681365019.8382,none
173,2023-04-13_13h50.22.621,0413_03,11,14,2,w,0.4787,0.6698,YL,True,1681365022.6214,none
174,2023-04-13_13h50.25.372,0413_03,11,15,2,w,0.3515,0.6442,YL,True,1681365025.3726,none
175,2023-04-13_13h50.27.821,0413_03,11,16,1,p,0.3453,none,BR,False,1681365027.8219,none
176,2023-04-13_13h50.57.555,0413_03,12,1,1,p,0.3978,none,BR,False,1681365057.5557,none
177,2023-04-13_13h51.00.254,0413_03,12,2,2,w,0.4418,0.6007,YR,True,1681365060.2547,none
178,2023-04-13_13h51.02.737,0413_03,12,3,1,p,0.3899,none,BR,False,1681365062.7376,none
179,2023-04-13_13h51.05.155,0413_03,12,4,1,p,0.3149,none,BR,False,1681365065.1562,none
180,2023-04-13_13h51.07.588,0413_03,12,5,1,p,0.3302,none,BL,False,1681365067.5882,none
181,2023-04-13_13h51.10.321,0413_03,12,6,2,w,0.3925,0.6323,YR,True,1681365070.3217,none
182,2023-04-13_13h51.13.022,0413_03,12,7,2,w,0.3796,0.5811,YL,True,1681365073.0222,none
183,2023-04-13_13h51.15.422,0413_03,12,8,1,p,0.3032,none,BR,False,1681365075.4224,none
184,2023-04-13_13h51.17.821,0413_03,12,9,1,p,0.3036,none,BL,False,1681365077.8211,none
185,2023-04-13_13h51.20.272,0413_03,12,10,1,p,0.3587,none,BL,False,1681365080.2721,none
186,2023-04-13_13h51.22.954,0413_03,12,11,2,w,0.4054,0.5726,YL,True,1681365082.9548,none
187,2023-04-13_13h51.25.638,0413_03,12,12,2,w,0.4419,0.5787,YR,True,1681365085.6382,none
188,2023-04-13_13h51.28.521,0413_03,12,13,2,w,0.7643,0.6489,YL,True,1681365088.5218,none
189,2023-04-13_13h51.31.039,0413_03,12,14,1,p,0.4111,none,BL,False,1681365091.0393,none
190,2023-04-13_13h51.33.771,0413_03,12,15,2,w,0.3831,0.6134,YL,True,1681365093.771,none
191,2023-04-13_13h51.36.522,0413_03,12,16,2,w,0.5373,0.6455,YR,True,1681365096.5222,none
192,2023-04-13_13h52.08.938,0413_03,13,1,2,w,0.4675,0.5274,YR,True,1681365128.9389,none
193,2023-04-13_13h52.11.404,0413_03,13,2,1,p,0.3622,none,BR,False,1681365131.405,none
194,2023-04-13_13h52.13.821,0413_03,13,3,1,p,0.3118,none,BL,False,1681365133.8215,none
195,2023-04-13_13h52.16.206,0413_03,13,4,1,p,0.279,none,BR,False,1681365136.2064,none
196,2023-04-13_13h52.18.921,0413_03,13,5,2,w,0.5116,0.6032,YR,True,1681365138.9215,none
197,2023-04-13_13h52.21.638,0413_03,13,6,2,w,0.3554,0.6014,YL,True,1681365141.6389,none
198,2023-04-13_13h52.24.221,0413_03,13,7,1,p,0.4866,none,BL,False,1681365144.2218,none
199,2023-04-13_13h52.26.688,0413_03,13,8,1,p,0.3673,none,BL,False,1681365146.6884,none
200,2023-04-13_13h52.29.088,0413_03,13,9,1,p,0.3084,none,BR,False,1681365149.0889,none
201,2023-04-13_13h52.31.521,0413_03,13,10,1,p,0.3405,none,BR,False,1681365151.5219,none
202,2023-04-13_13h52.34.172,0413_03,13,11,2,w,0.5311,0.5301,YL,True,1681365154.1721,none
203,2023-04-13_13h52.36.672,0413_03,13,12,1,p,0.4012,none,BL,False,1681365156.6722,none
204,2023-04-13_13h52.39.321,0413_03,13,13,2,w,0.3814,0.5401,YR,True,1681365159.3212,none
205,2023-04-13_13h52.42.055,0413_03,13,14,2,w,0.5232,0.6195,YL,True,1681365162.0554,none
206,2023-04-13_13h52.44.773,0413_03,13,15,2,w,0.3659,0.6046,YL,True,1681365164.7732,none
207,2023-04-13_13h52.47.421,0413_03,13,16,2,w,0.4087,0.5474,YR,True,1681365167.422,none
208,2023-04-13_13h53.21.838,0413_03,14,1,1,p,0.3611,none,BL,False,1681365201.8387,none
209,2023-04-13_13h53.24.339,0413_03,14,2,1,p,0.3977,none,BL,False,1681365204.339,none
210,2023-04-13_13h53.27.038,0413_03,14,3,2,w,0.4178,0.583,YR,True,1681365207.0384,none
211,2023-04-13_13h53.29.538,0413_03,14,4,1,p,0.3986,none,BL,False,1681365209.5387,none
212,2023-04-13_13h53.31.938,0413_03,14,5,1,p,0.3062,none,BL,False,1681365211.9389,none
213,2023-04-13_13h53.34.621,0413_03,14,6,2,w,0.5735,0.5371,YL,True,1681365214.6218,none
214,2023-04-13_13h53.37.289,0413_03,14,7,2,w,0.463,0.5412,YR,True,1681365217.29,none
215,2023-04-13_13h53.39.739,0413_03,14,8,1,p,0.3398,none,BR,False,1681365219.739,none
216,2023-04-13_13h53.42.421,0413_03,14,9,2,w,0.3536,0.5768,YL,True,1681365222.4218,none
217,2023-04-13_13h53.45.122,0413_03,14,10,2,w,0.2946,0.5807,YR,True,1681365225.1223,none
218,2023-04-13_13h53.47.754,0413_03,14,11,2,w,0.3155,0.5154,YL,True,1681365227.7546,none
219,2023-04-13_13h53.50.555,0413_03,14,12,1,p,0.6967,none,BR,False,1681365230.5558,none
220,2023-04-13_13h53.53.205,0413_03,14,13,2,w,0.3934,0.5297,YR,True,1681365233.2055,none
221,2023-04-13_13h53.55.638,0413_03,14,14,1,p,0.328,none,BR,False,1681365235.6386,none
222,2023-04-13_13h53.58.139,0413_03,14,15,1,p,0.3984,none,BR,False,1681365238.1394,none
223,2023-04-13_13h54.00.788,0413_03,14,16,2,w,0.3231,0.5393,YL,True,1681365240.7882,none
224,2023-04-13_13h54.34.855,0413_03,15,1,1,p,0.3181,none,BR,False,1681365274.8557,none
225,2023-04-13_13h54.37.239,0413_03,15,2,1,p,0.2933,none,BL,False,1681365277.2391,none
226,2023-04-13_13h54.39.655,0413_03,15,3,1,p,0.3179,none,BR,False,1681365279.6558,none
227,2023-04-13_13h54.42.288,0413_03,15,4,2,w,0.4058,0.5172,YL,True,1681365282.289,none
228,2023-04-13_13h54.44.921,0413_03,15,5,2,w,0.4199,0.5252,YR,True,1681365284.9217,none
229,2023-04-13_13h54.47.372,0413_03,15,6,1,p,0.3465,none,BL,False,1681365287.3726,none
230,2023-04-13_13h54.50.039,0413_03,15,7,2,w,0.3694,0.5474,YL,True,1681365290.039,none
231,2023-04-13_13h54.52.438,0413_03,15,8,1,p,0.302,none,BL,False,1681365292.4381,none
232,2023-04-13_13h54.55.038,0413_03,15,9,2,w,0.3263,0.488,YL,True,1681365295.0388,none
233,2023-04-13_13h54.57.439,0413_03,15,10,1,p,0.3102,none,BR,False,1681365297.4395,none
234,2023-04-13_13h55.00.023,0413_03,15,11,2,w,0.3182,0.4762,YR,True,1681365300.0231,none
235,2023-04-13_13h55.02.639,0413_03,15,12,2,w,0.5087,0.4821,YR,True,1681365302.6393,none
236,2023-04-13_13h55.05.189,0413_03,15,13,1,p,0.4462,none,BR,False,1681365305.1897,none
237,2023-04-13_13h55.07.872,0413_03,15,14,2,w,0.3841,0.5677,YR,True,1681365307.8725,none
238,2023-04-13_13h55.10.372,0413_03,15,15,1,p,0.3966,none,BL,False,1681365310.3723,none
239,2023-04-13_13h55.12.971,0413_03,15,16,2,w,0.3525,0.49,YL,True,1681365312.9717,none
240,2023-04-13_13h56.18.923,0413_03,16,1,2,w,0.4816,none,YL,False,1681365378.923,none
241,2023-04-13_13h56.21.557,0413_03,16,2,2,w,0.5307,none,YR,False,1681365381.557,none
242,2023-04-13_13h56.24.072,0413_03,16,3,2,w,0.4085,none,YR,False,1681365384.0726,none
243,2023-04-13_13h56.26.489,0413_03,16,4,2,w,0.3165,none,YL,False,1681365386.4893,none
244,2023-04-13_13h56.28.872,0413_03,16,5,1,p,0.2916,none,BR,False,1681365388.8723,none
245,2023-04-13_13h56.31.306,0413_03,16,6,1,p,0.3402,none,BL,False,1681365391.3064,none
246,2023-04-13_13h56.33.672,0413_03,16,7,1,p,0.2674,none,BR,False,1681365393.6725,none
247,2023-04-13_13h56.36.072,0413_03,16,8,1,p,0.3006,none,BR,False,1681365396.0725,none
248,2023-04-13_13h56.38.539,0413_03,16,9,2,w,0.3729,none,YR,False,1681365398.5396,none
249,2023-04-13_13h56.40.938,0413_03,16,10,1,p,0.2975,none,BL,False,1681365400.9389,none
250,2023-04-13_13h56.43.372,0413_03,16,11,1,p,0.3297,none,BL,False,1681365403.3726,none
251,2023-04-13_13h56.45.888,0413_03,16,12,2,w,0.4169,none,YL,False,1681365405.8884,none
252,2023-04-13_13h56.48.339,0413_03,16,13,1,p,0.356,none,BL,False,1681365408.3399,none
253,2023-04-13_13h56.50.872,0413_03,16,14,2,w,0.4416,none,YL,False,1681365410.8728,none
254,2023-04-13_13h56.53.255,0413_03,16,15,1,p,0.2847,none,BR,False,1681365413.2553,none
255,2023-04-13_13h56.55.705,0413_03,16,16,2,w,0.3492,none,YR,False,1681365415.7059,none
256,2023-04-13_13h57.31.955,0413_03,17,1,2,w,0.7499,0.528,YR,True,1681365451.9558,none
257,2023-04-13_13h57.34.438,0413_03,17,2,1,p,0.3851,none,BR,False,1681365454.4388,none
258,2023-04-13_13h57.36.939,0413_03,17,3,1,p,0.3974,none,BL,False,1681365456.9394,none
259,2023-04-13_13h57.39.489,0413_03,17,4,2,w,0.4417,0.4426,YL,True,1681365459.4896,none
260,2023-04-13_13h57.42.139,0413_03,17,5,2,w,0.54,0.5458,YR,True,1681365462.1394,none
261,2023-04-13_13h57.44.656,0413_03,17,6,1,p,0.4259,none,BR,False,1681365464.6569,none
262,2023-04-13_13h57.47.156,0413_03,17,7,1,p,0.3973,none,BR,False,1681365467.1569,none
263,2023-04-13_13h57.49.789,0413_03,17,8,2,w,0.3133,0.5184,YL,True,1681365469.7891,none
264,2023-04-13_13h57.52.322,0413_03,17,9,2,w,0.3197,0.4271,YL,True,1681365472.3229,none
265,2023-04-13_13h57.54.956,0413_03,17,10,2,w,0.3219,0.5321,YR,True,1681365474.9569,none
266,2023-04-13_13h57.57.406,0413_03,17,11,1,p,0.3283,none,BR,False,1681365477.4067,none
267,2023-04-13_13h57.59.839,0413_03,17,12,1,p,0.3355,none,BL,False,1681365479.8392,none
268,2023-04-13_13h58.02.388,0413_03,17,13,1,p,0.4458,none,BL,False,1681365482.3887,none
269,2023-04-13_13h58.05.005,0413_03,17,14,2,w,0.3918,0.5146,YL,True,1681365485.0055,none
270,2023-04-13_13h58.07.456,0413_03,17,15,1,p,0.3511,none,BL,False,1681365487.4564,none
271,2023-04-13_13h58.10.039,0413_03,17,16,2,w,0.3489,0.4757,YR,True,1681365490.0395,none
272,2023-04-13_13h58.45.039,0413_03,18,1,1,p,0.335,none,BL,False,1681365525.0393,none
273,2023-04-13_13h58.47.622,0413_03,18,2,2,w,0.4057,0.4684,YR,True,1681365527.6227,none
274,2023-04-13_13h58.50.256,0413_03,18,3,2,w,0.4136,0.5135,YR,True,1681365530.2564,none
275,2023-04-13_13h58.52.923,0413_03,18,4,2,w,0.565,0.5087,YL,True,1681365532.9238,none
276,2023-04-13_13h58.55.455,0413_03,18,5,2,w,0.378,0.4131,YL,True,1681365535.4558,none
277,2023-04-13_13h58.58.056,0413_03,18,6,2,w,0.3488,0.4776,YL,True,1681365538.0562,none
278,2023-04-13_13h59.00.506,0413_03,18,7,1,p,0.3571,none,BL,False,1681365540.5061,none
279,2023-04-13_13h59.02.890,0413_03,18,8,1,p,0.2824,none,BL,False,1681365542.8904,none
280,2023-04-13_13h59.05.322,0413_03,18,9,1,p,0.3315,none,BR,False,1681365545.3228,none
281,2023-04-13_13h59.07.739,0413_03,18,10,1,p,0.3224,none,BR,False,1681365547.7392,none
282,2023-04-13_13h59.10.373,0413_03,18,11,2,w,0.4017,0.5199,YR,True,1681365550.3731,none
283,2023-04-13_13h59.12.989,0413_03,18,12,1,p,0.5122,none,BR,False,1681365552.9897,none
284,2023-04-13_13h59.15.405,0413_03,18,13,1,p,0.3114,none,BL,False,1681365555.4067,none
285,2023-04-13_13h59.17.989,0413_03,18,14,2,w,0.4735,0.4033,YL,True,1681365557.989,none
286,2023-04-13_13h59.20.640,0413_03,18,15,2,w,0.5454,0.486,YR,True,1681365560.6406,none
287,2023-04-13_13h59.23.107,0413_03,18,16,1,p,0.373,none,BR,False,1681365563.107,none
288,2023-04-13_13h59.56.773,0413_03,19,1,1,p,0.3297,none,BR,False,1681365596.7736,none
289,2023-04-13_13h59.59.289,0413_03,19,2,2,w,0.4109,0.4032,YR,True,1681365599.2895,none
290,2023-04-13_14h00.01.922,0413_03,19,3,2,w,0.3786,0.5098,YL,True,1681365601.9223,none
291,2023-04-13_14h00.04.523,0413_03,19,4,1,p,0.4977,none,BR,False,1681365604.5231,none
292,2023-04-13_14h00.07.038,0413_03,19,5,2,w,0.346,0.392,YL,True,1681365607.039,none
293,2023-04-13_14h00.09.622,0413_03,19,6,2,w,0.4669,0.4229,YR,True,1681365609.6223,none
294,2023-04-13_14h00.12.088,0413_03,19,7,1,p,0.3649,none,BL,False,1681365612.089,none
295,2023-04-13_14h00.14.540,0413_03,19,8,1,p,0.3474,none,BL,False,1681365614.5407,none
296,2023-04-13_14h00.17.105,0413_03,19,9,2,w,0.4089,0.4399,YL,True,1681365617.106,none
297,2023-04-13_14h00.19.740,0413_03,19,10,2,w,0.5135,0.3668,YR,True,1681365619.74,none
298,2023-04-13_14h00.22.223,0413_03,19,11,2,w,0.3699,0.3677,YR,True,1681365622.2235,none
299,2023-04-13_14h00.24.723,0413_03,19,12,1,p,0.4063,none,BL,False,1681365624.7233,none
300,2023-04-13_14h00.27.222,0413_03,19,13,1,p,0.402,none,BL,False,1681365627.223,none
301,2023-04-13_14h00.29.640,0413_03,19,14,1,p,0.3177,none,BR,False,1681365629.6404,none
302,2023-04-13_14h00.32.272,0413_03,19,15,2,w,0.3729,0.5098,YL,True,1681365632.2722,none
303,2023-04-13_14h00.34.773,0413_03,19,16,1,p,0.4041,none,BR,False,1681365634.7737,none
304,2023-04-13_14h01.08.389,0413_03,20,1,2,w,0.3905,0.4728,YL,True,1681365668.3899,none
305,2023-04-13_14h01.10.956,0413_03,20,2,2,w,0.4155,0.4562,YL,True,1681365670.9565,none
306,2023-04-13_14h01.13.473,0413_03,20,3,1,p,0.4246,none,BL,False,1681365673.4732,none
307,2023-04-13_14h01.15.872,0413_03,20,4,1,p,0.2998,none,BL,False,1681365675.8725,none
308,2023-04-13_14h01.18.407,0413_03,20,5,2,w,0.4156,0.4132,YR,True,1681365678.4073,none
309,2023-04-13_14h01.20.889,0413_03,20,6,1,p,0.3907,none,BR,False,1681365680.8896,none
310,2023-04-13_14h01.23.423,0413_03,20,7,2,w,0.4155,0.3633,YL,True,1681365683.4236,none
311,2023-04-13_14h01.25.840,0413_03,20,8,1,p,0.3258,none,BR,False,1681365685.8405,none
312,2023-04-13_14h01.28.240,0413_03,20,9,1,p,0.2927,none,BR,False,1681365688.2401,none
313,2023-04-13_14h01.31.507,0413_03,20,10,2,w,1.1599,0.4199,YR,True,1681365691.5072,none
314,2023-04-13_14h01.33.956,0413_03,20,11,1,p,0.346,none,BR,False,1681365693.9563,none
315,2023-04-13_14h01.36.490,0413_03,20,12,1,p,0.4329,none,BL,False,1681365696.4904,none
316,2023-04-13_14h01.39.139,0413_03,20,13,1,p,0.5549,none,BL,False,1681365699.1395,none
317,2023-04-13_14h01.41.690,0413_03,20,14,2,w,0.4171,0.4391,YL,True,1681365701.6901,none
318,2023-04-13_14h01.44.289,0413_03,20,15,2,w,0.322,0.471,YR,True,1681365704.2898,none
319,2023-04-13_14h01.46.856,0413_03,20,16,2,w,0.371,0.4489,YR,True,1681365706.8562,none
