,timestamp,experiment_ID,block_ID,stimulus_ID,subject,key_press,rt,fake_human_rt,trial_stim,fake_or_not,UNIX_time,wrong_type
0,2023-04-28_11h11.25.218,2,1,1,2,w,0.5353,none,YR,False,1682651485.2182,none
1,2023-04-28_11h11.27.967,2,1,2,2,w,0.6542,none,YL,False,1682651487.9678,none
2,2023-04-28_11h11.30.617,2,1,3,2,w,0.5447,none,YL,False,1682651490.6179,none
3,2023-04-28_11h11.33.601,2,1,4,1,p,0.8864,none,BL,False,1682651493.6011,none
4,2023-04-28_11h11.36.234,2,1,5,1,p,0.5352,none,BR,False,1682651496.235,none
5,2023-04-28_11h11.38.950,2,1,6,2,w,0.6215,none,YR,False,1682651498.9508,none
6,2023-04-28_11h11.41.451,2,1,7,1,p,0.4009,none,BR,False,1682651501.4512,none
7,2023-04-28_11h11.44.034,2,1,8,1,p,0.4772,none,BR,False,1682651504.0346,none
8,2023-04-28_11h11.47.034,2,1,9,2,w,0.9022,none,YL,False,1682651507.0342,none
9,2023-04-28_11h11.49.717,2,1,10,2,w,0.5816,none,YR,False,1682651509.7179,none
10,2023-04-28_11h11.52.284,2,1,11,1,p,0.4661,none,BL,False,1682651512.2842,none
11,2023-04-28_11h11.54.917,2,1,12,1,p,0.5398,none,BL,False,1682651514.9183,none
12,2023-04-28_11h11.57.683,2,1,13,2,w,0.6665,none,YR,False,1682651517.6832,none
13,2023-04-28_11h12.00.268,2,1,14,1,p,0.4837,none,BL,False,1682651520.2681,none
14,2023-04-28_11h12.03.201,2,1,15,2,w,0.8283,none,YL,False,1682651523.2015,none
15,2023-04-28_11h12.05.734,2,1,16,1,p,0.4386,none,BR,False,1682651525.7349,none
16,2023-04-28_11h12.41.483,2,2,1,1,p,0.3411,none,BL,False,1682651561.4839,none
17,2023-04-28_11h12.44.018,2,2,2,2,w,0.4435,none,YR,False,1682651564.0188,none
18,2023-04-28_11h12.46.467,2,2,3,1,p,0.3582,none,BR,False,1682651566.4675,none
19,2023-04-28_11h12.49.067,2,2,4,1,p,0.5085,none,BR,False,1682651569.0674,none
20,2023-04-28_11h12.51.567,2,2,5,2,w,0.3965,none,YL,False,1682651571.5672,none
21,2023-04-28_11h12.54.001,2,2,6,2,w,0.3359,none,YL,False,1682651574.0017,none
22,2023-04-28_11h12.56.567,2,2,7,2,w,0.4709,none,YR,False,1682651576.568,none
23,2023-04-28_11h12.59.200,2,2,8,1,p,0.5363,none,BR,False,1682651579.2008,none
24,2023-04-28_11h13.02.018,2,2,9,2,w,0.726,none,YR,False,1682651582.0181,none
25,2023-04-28_11h13.04.852,2,2,10,1,p,0.7333,none,BL,False,1682651584.852,none
26,2023-04-28_11h13.07.334,2,2,11,2,w,0.3805,none,YR,False,1682651587.3343,none
27,2023-04-28_11h13.09.818,2,2,12,1,p,0.3923,none,BL,False,1682651589.8184,none
28,2023-04-28_11h13.12.300,2,2,13,1,p,0.39,none,BL,False,1682651592.3007,none
29,2023-04-28_11h13.14.750,2,2,14,1,p,0.3465,none,BR,False,1682651594.7504,none
30,2023-04-28_11h13.17.284,2,2,15,2,w,0.4402,none,YL,False,1682651597.2844,none
31,2023-04-28_11h13.20.701,2,2,16,2,w,1.3236,none,YL,False,1682651600.7018,none
32,2023-04-28_11h13.51.917,2,3,1,1,p,0.306,none,BR,False,1682651631.9175,none
33,2023-04-28_11h13.54.817,2,3,2,2,w,0.5058,0.786,YL,True,1682651634.8178,none
34,2023-04-28_11h13.57.334,2,3,3,1,p,0.4144,none,BR,False,1682651637.3349,none
35,2023-04-28_11h13.59.884,2,3,4,1,p,0.4321,none,BR,False,1682651639.8845,none
36,2023-04-28_11h14.02.600,2,3,5,1,p,0.5938,none,BL,False,1682651642.6008,none
37,2023-04-28_11h14.05.502,2,3,6,2,w,0.4629,0.786,YR,True,1682651645.5021,none
38,2023-04-28_11h14.08.418,2,3,7,2,w,0.3219,0.786,YR,True,1682651648.4185,none
39,2023-04-28_11h14.10.934,2,3,8,1,p,0.3974,none,BR,False,1682651650.9346,none
40,2023-04-28_11h14.13.834,2,3,9,2,w,0.6176,0.786,YR,True,1682651653.8343,none
41,2023-04-28_11h14.16.301,2,3,10,1,p,0.3565,none,BL,False,1682651656.3014,none
42,2023-04-28_11h14.19.201,2,3,11,2,w,0.2991,0.786,YR,True,1682651659.2015,none
43,2023-04-28_11h14.22.117,2,3,12,2,w,0.4703,0.786,YL,True,1682651662.1175,none
44,2023-04-28_11h14.25.034,2,3,13,2,w,0.3453,0.786,YL,True,1682651665.0347,none
45,2023-04-28_11h14.27.950,2,3,14,2,w,0.3406,0.786,YL,True,1682651667.9509,none
46,2023-04-28_11h14.30.384,2,3,15,1,p,0.3202,none,BL,False,1682651670.3848,none
47,2023-04-28_11h14.32.935,2,3,16,1,p,0.4383,none,BL,False,1682651672.935,none
48,2023-04-28_11h15.08.634,2,4,1,1,p,0.3092,none,BR,False,1682651708.6342,none
49,2023-04-28_11h15.11.500,2,4,2,2,w,0.5407,0.757,YR,True,1682651711.5009,none
50,2023-04-28_11h15.14.368,2,4,3,2,w,0.4589,0.7631,YR,True,1682651714.3683,none
51,2023-04-28_11h15.17.235,2,4,4,2,w,0.3679,0.7572,YL,True,1682651717.2352,none
52,2023-04-28_11h15.19.884,2,4,5,1,p,0.5572,none,BL,False,1682651719.8848,none
53,2023-04-28_11h15.22.351,2,4,6,1,p,0.3625,none,BL,False,1682651722.3516,none
54,2023-04-28_11h15.25.234,2,4,7,2,w,0.4485,0.7621,YL,True,1682651725.2343,none
55,2023-04-28_11h15.28.101,2,4,8,2,w,0.3892,0.76,YR,True,1682651728.1014,none
56,2023-04-28_11h15.30.801,2,4,9,1,p,0.6022,none,BL,False,1682651730.8017,none
57,2023-04-28_11h15.33.668,2,4,10,2,w,0.4544,0.7571,YL,True,1682651733.6687,none
58,2023-04-28_11h15.36.534,2,4,11,2,w,0.5072,0.763,YL,True,1682651736.5346,none
59,2023-04-28_11h15.39.067,2,4,12,1,p,0.441,none,BR,False,1682651739.0674,none
60,2023-04-28_11h15.41.584,2,4,13,1,p,0.4197,none,BR,False,1682651741.5849,none
61,2023-04-28_11h15.44.451,2,4,14,2,w,0.5983,0.7575,YR,True,1682651744.4512,none
62,2023-04-28_11h15.47.035,2,4,15,1,p,0.4843,none,BL,False,1682651747.0352,none
63,2023-04-28_11h15.49.667,2,4,16,1,p,0.5326,none,BR,False,1682651749.668,none
64,2023-04-28_11h16.24.668,2,5,1,1,p,0.3328,none,BR,False,1682651784.6687,none
65,2023-04-28_11h16.27.069,2,5,2,1,p,0.3073,none,BL,False,1682651787.0693,none
66,2023-04-28_11h16.29.918,2,5,3,2,w,0.3941,0.7196,YR,True,1682651789.9185,none
67,2023-04-28_11h16.32.318,2,5,4,1,p,0.2976,none,BL,False,1682651792.3181,none
68,2023-04-28_11h16.35.151,2,5,5,2,w,0.3856,0.7221,YR,True,1682651795.152,none
69,2023-04-28_11h16.38.018,2,5,6,2,w,0.3359,0.7292,YR,True,1682651798.0182,none
70,2023-04-28_11h16.40.401,2,5,7,1,p,0.2776,none,BL,False,1682651800.401,none
71,2023-04-28_11h16.43.235,2,5,8,2,w,0.3585,0.7336,YL,True,1682651803.2352,none
72,2023-04-28_11h16.46.084,2,5,9,2,w,0.4282,0.7268,YL,True,1682651806.0847,none
73,2023-04-28_11h16.48.484,2,5,10,1,p,0.3064,none,BL,False,1682651808.4846,none
74,2023-04-28_11h16.51.486,2,5,11,2,w,0.8854,0.7293,YL,True,1682651811.4863,none
75,2023-04-28_11h16.54.335,2,5,12,2,w,0.3467,0.7262,YL,True,1682651814.3353,none
76,2023-04-28_11h16.56.685,2,5,13,1,p,0.249,none,BR,False,1682651816.685,none
77,2023-04-28_11h16.59.135,2,5,14,1,p,0.3468,none,BR,False,1682651819.1358,none
78,2023-04-28_11h17.01.985,2,5,15,2,w,0.3682,0.734,YR,True,1682651821.9853,none
79,2023-04-28_11h17.04.385,2,5,16,1,p,0.3107,none,BR,False,1682651824.3856,none
80,2023-04-28_11h17.41.834,2,6,1,1,p,0.3594,none,BL,False,1682651861.8347,none
81,2023-04-28_11h17.44.652,2,6,2,2,w,0.261,0.6999,YR,True,1682651864.6521,none
82,2023-04-28_11h17.47.468,2,6,3,2,w,0.4124,0.6905,YL,True,1682651867.4688,none
83,2023-04-28_11h17.50.302,2,6,4,2,w,0.3794,0.7167,YL,True,1682651870.3022,none
84,2023-04-28_11h17.53.134,2,6,5,2,w,0.3465,0.7123,YL,True,1682651873.1348,none
85,2023-04-28_11h17.55.585,2,6,6,1,p,0.3605,none,BL,False,1682651875.5856,none
86,2023-04-28_11h17.58.151,2,6,7,1,p,0.4699,none,BR,False,1682651878.152,none
87,2023-04-28_11h18.00.585,2,6,8,1,p,0.3439,none,BR,False,1682651880.5853,none
88,2023-04-28_11h18.03.167,2,6,9,1,p,0.4788,none,BR,False,1682651883.1679,none
89,2023-04-28_11h18.05.968,2,6,10,2,w,0.558,0.6942,YL,True,1682651885.9681,none
90,2023-04-28_11h18.08.502,2,6,11,1,p,0.4303,none,BL,False,1682651888.5023,none
91,2023-04-28_11h18.10.869,2,6,12,1,p,0.2658,none,BL,False,1682651890.8696,none
92,2023-04-28_11h18.13.668,2,6,13,2,w,0.5389,0.6889,YR,True,1682651893.6685,none
93,2023-04-28_11h18.16.484,2,6,14,2,w,0.5635,0.6952,YR,True,1682651896.4848,none
94,2023-04-28_11h18.18.919,2,6,15,1,p,0.3306,none,BR,False,1682651898.9192,none
95,2023-04-28_11h18.21.734,2,6,16,2,w,0.6093,0.7151,YR,True,1682651901.735,none
96,2023-04-28_11h18.55.568,2,7,1,1,p,0.4691,none,BR,False,1682651935.5682,none
97,2023-04-28_11h18.58.334,2,7,2,2,w,0.559,0.6596,YR,True,1682651938.3349,none
98,2023-04-28_11h19.01.118,2,7,3,2,w,0.3925,0.6835,YR,True,1682651941.1185,none
99,2023-04-28_11h19.03.918,2,7,4,2,w,0.3531,0.6814,YL,True,1682651943.9185,none
100,2023-04-28_11h19.06.718,2,7,5,2,w,0.313,0.6856,YL,True,1682651946.7187,none
101,2023-04-28_11h19.09.186,2,7,6,1,p,0.361,none,BR,False,1682651949.1868,none
102,2023-04-28_11h19.11.868,2,7,7,1,p,0.566,none,BL,False,1682651951.8687,none
103,2023-04-28_11h19.14.685,2,7,8,2,w,0.3304,0.693,YR,True,1682651954.6856,none
104,2023-04-28_11h19.17.119,2,7,9,1,p,0.3303,none,BR,False,1682651957.1198,none
105,2023-04-28_11h19.19.668,2,7,10,1,p,0.4322,none,BL,False,1682651959.6681,none
106,2023-04-28_11h19.22.184,2,7,11,1,p,0.419,none,BR,False,1682651962.1849,none
107,2023-04-28_11h19.24.569,2,7,12,1,p,0.2867,none,BL,False,1682651964.569,none
108,2023-04-28_11h19.27.352,2,7,13,2,w,0.591,0.6772,YR,True,1682651967.3525,none
109,2023-04-28_11h19.30.134,2,7,14,2,w,0.4315,0.6729,YL,True,1682651970.135,none
110,2023-04-28_11h19.32.636,2,7,15,1,p,0.4082,none,BL,False,1682651972.6363,none
111,2023-04-28_11h19.35.419,2,7,16,2,w,0.4362,0.6639,YL,True,1682651975.4193,none
112,2023-04-28_11h20.08.003,2,8,1,1,p,0.4605,none,BR,False,1682652008.0033,none
113,2023-04-28_11h20.10.418,2,8,2,1,p,0.3086,none,BR,False,1682652010.4189,none
114,2023-04-28_11h20.12.935,2,8,3,2,w,0.4211,none,YR,False,1682652012.9358,none
115,2023-04-28_11h20.15.368,2,8,4,2,w,0.3361,none,YR,False,1682652015.3688,none
116,2023-04-28_11h20.17.869,2,8,5,1,p,0.4066,none,BL,False,1682652017.8694,none
117,2023-04-28_11h20.20.302,2,8,6,2,p,0.3385,none,YL,False,1682652020.3023,Wrong_press
118,2023-04-28_11h20.22.719,2,8,7,2,w,0.3132,none,YR,False,1682652022.7194,none
119,2023-04-28_11h20.25.152,2,8,8,2,w,0.3289,none,YL,False,1682652025.1528,none
120,2023-04-28_11h20.27.552,2,8,9,1,p,0.3032,none,BR,False,1682652027.5522,none
121,2023-04-28_11h20.30.002,2,8,10,2,w,0.3593,none,YR,False,1682652030.0027,none
122,2023-04-28_11h20.32.452,2,8,11,1,p,0.358,none,BL,False,1682652032.4528,none
123,2023-04-28_11h20.34.935,2,8,12,1,p,0.3871,none,BR,False,1682652034.9355,none
124,2023-04-28_11h20.37.303,2,8,13,2,w,0.2641,none,YL,False,1682652037.3031,none
125,2023-04-28_11h20.39.718,2,8,14,2,w,0.3136,none,YL,False,1682652039.7185,none
126,2023-04-28_11h20.42.168,2,8,15,1,w,0.3446,none,BL,False,1682652042.1685,Wrong_press
127,2023-04-28_11h20.44.668,2,8,16,1,p,0.3988,none,BL,False,1682652044.6689,none
128,2023-04-28_11h21.21.036,2,9,1,2,w,0.4994,0.6619,YL,True,1682652081.0365,none
129,2023-04-28_11h21.23.486,2,9,2,1,p,0.3559,none,BR,False,1682652083.4867,none
130,2023-04-28_11h21.26.252,2,9,3,2,w,0.3781,0.6447,YR,True,1682652086.2529,none
131,2023-04-28_11h21.28.636,2,9,4,1,p,0.2917,none,BR,False,1682652088.6361,none
132,2023-04-28_11h21.31.385,2,9,5,2,w,0.324,0.6355,YL,True,1682652091.386,none
133,2023-04-28_11h21.34.119,2,9,6,2,w,0.3503,0.6257,YR,True,1682652094.1194,none
134,2023-04-28_11h21.36.868,2,9,7,2,w,0.353,0.6363,YR,True,1682652096.869,none
135,2023-04-28_11h21.39.287,2,9,8,1,p,0.3228,none,BL,False,1682652099.287,none
136,2023-04-28_11h21.41.902,2,9,9,1,p,0.5131,none,BR,False,1682652101.9029,none
137,2023-04-28_11h21.44.469,2,9,10,1,p,0.4736,none,BL,False,1682652104.47,none
138,2023-04-28_11h21.47.201,2,9,11,2,w,0.3462,0.6225,YR,True,1682652107.2017,none
139,2023-04-28_11h21.49.986,2,9,12,2,w,0.3325,0.6686,YL,True,1682652109.9861,none
140,2023-04-28_11h21.52.718,2,9,13,2,w,0.3979,0.6234,YL,True,1682652112.7186,none
141,2023-04-28_11h21.55.235,2,9,14,1,p,0.4165,none,BR,False,1682652115.2357,none
142,2023-04-28_11h21.57.802,2,9,15,1,p,0.4758,none,BL,False,1682652117.8024,none
143,2023-04-28_11h22.00.219,2,9,16,1,p,0.3252,none,BL,False,1682652120.219,none
144,2023-04-28_11h22.32.819,2,10,1,1,p,0.3164,none,BL,False,1682652152.8199,none
145,2023-04-28_11h22.35.218,2,10,2,1,p,0.2838,none,BR,False,1682652155.2188,none
146,2023-04-28_11h22.37.670,2,10,3,1,p,0.3488,none,BL,False,1682652157.6702,none
147,2023-04-28_11h22.40.202,2,10,4,2,w,0.4255,none,YR,False,1682652160.203,none
148,2023-04-28_11h22.42.586,2,10,5,2,w,0.293,none,YR,False,1682652162.5861,none
149,2023-04-28_11h22.44.986,2,10,6,1,p,0.3021,none,BL,False,1682652164.9869,none
150,2023-04-28_11h22.47.586,2,10,7,1,p,0.5018,none,BR,False,1682652167.5865,none
151,2023-04-28_11h22.50.319,2,10,8,2,w,0.6373,none,YL,False,1682652170.3193,none
152,2023-04-28_11h22.52.752,2,10,9,1,w,0.3354,none,BR,False,1682652172.7524,Wrong_press
153,2023-04-28_11h22.55.186,2,10,10,2,w,0.3425,none,YL,False,1682652175.1861,none
154,2023-04-28_11h22.57.686,2,10,11,2,w,0.3976,none,YL,False,1682652177.687,none
155,2023-04-28_11h23.00.569,2,10,12,2,w,0.7778,none,YR,False,1682652180.5692,none
156,2023-04-28_11h23.03.052,2,10,13,1,w,0.3905,none,BR,False,1682652183.0521,Wrong_press
157,2023-04-28_11h23.05.535,2,10,14,2,w,0.3791,none,YR,False,1682652185.536,none
158,2023-04-28_11h23.07.987,2,10,15,2,w,0.3521,none,YL,False,1682652187.9871,none
159,2023-04-28_11h23.10.503,2,10,16,1,p,0.3969,none,BL,False,1682652190.5031,none
160,2023-04-28_11h23.49.853,2,11,1,2,w,0.553,0.6435,YR,True,1682652229.8533,none
161,2023-04-28_11h23.52.602,2,11,2,2,w,0.4909,0.649,YR,True,1682652232.6029,none
162,2023-04-28_11h23.55.335,2,11,3,2,w,0.3897,0.6193,YL,True,1682652235.3355,none
163,2023-04-28_11h23.57.852,2,11,4,1,p,0.4236,none,BL,False,1682652237.8528,none
164,2023-04-28_11h24.00.553,2,11,5,2,w,0.4588,0.5919,YL,True,1682652240.5534,none
165,2023-04-28_11h24.03.003,2,11,6,1,p,0.3508,none,BL,False,1682652243.004,none
166,2023-04-28_11h24.05.752,2,11,7,2,w,0.3173,0.6341,YR,True,1682652245.7529,none
167,2023-04-28_11h24.08.369,2,11,8,1,p,0.5112,none,BR,False,1682652248.3699,none
168,2023-04-28_11h24.11.053,2,11,9,1,p,0.5818,none,BL,False,1682652251.0531,none
169,2023-04-28_11h24.13.786,2,11,10,1,p,0.6275,none,BR,False,1682652253.7863,none
170,2023-04-28_11h24.16.253,2,11,11,1,p,0.3736,none,BL,False,1682652256.2538,none
171,2023-04-28_11h24.19.036,2,11,12,2,w,0.6838,0.5932,YL,True,1682652259.0365,none
172,2023-04-28_11h24.21.503,2,11,13,1,p,0.3628,none,BR,False,1682652261.5039,none
173,2023-04-28_11h24.24.219,2,11,14,2,w,0.5986,0.5963,YL,True,1682652264.2197,none
174,2023-04-28_11h24.26.986,2,11,15,2,w,0.5321,0.6459,YR,True,1682652266.9863,none
175,2023-04-28_11h24.29.436,2,11,16,1,p,0.3502,none,BR,False,1682652269.4368,none
176,2023-04-28_11h25.07.168,2,12,1,2,w,0.8545,0.5613,YL,True,1682652307.1699,none
177,2023-04-28_11h25.09.569,2,12,2,1,p,0.2946,none,BL,False,1682652309.57,none
178,2023-04-28_11h25.12.019,2,12,3,1,p,0.3498,none,BL,False,1682652312.0199,none
179,2023-04-28_11h25.14.487,2,12,4,1,p,0.3645,none,BR,False,1682652314.4873,none
180,2023-04-28_11h25.16.936,2,12,5,1,p,0.329,none,BR,False,1682652316.9369,none
181,2023-04-28_11h25.19.353,2,12,6,1,p,0.3115,none,BL,False,1682652319.3534,none
182,2023-04-28_11h25.22.069,2,12,7,2,w,0.415,0.6008,YR,True,1682652322.0699,none
183,2023-04-28_11h25.25.003,2,12,8,2,w,0.8243,0.5987,YR,True,1682652325.0031,none
184,2023-04-28_11h25.27.685,2,12,9,2,w,0.4289,0.564,YR,True,1682652327.6859,none
185,2023-04-28_11h25.30.402,2,12,10,2,w,0.377,0.6075,YL,True,1682652330.4024,none
186,2023-04-28_11h25.33.103,2,12,11,2,w,0.3326,0.5784,YL,True,1682652333.104,none
187,2023-04-28_11h25.35.503,2,12,12,1,p,0.2879,none,BL,False,1682652335.5034,none
188,2023-04-28_11h25.38.203,2,12,13,2,w,0.4003,0.5828,YL,True,1682652338.2034,none
189,2023-04-28_11h25.40.686,2,12,14,1,p,0.3881,none,BR,False,1682652340.6864,none
190,2023-04-28_11h25.43.169,2,12,15,1,p,0.3933,none,BR,False,1682652343.1696,none
191,2023-04-28_11h25.45.869,2,12,16,2,w,0.494,0.5985,YR,True,1682652345.8697,none
192,2023-04-28_11h26.20.653,2,13,1,2,w,0.8774,0.5621,YL,True,1682652380.6533,none
193,2023-04-28_11h26.23.319,2,13,2,2,w,0.4178,0.5527,YL,True,1682652383.3196,none
194,2023-04-28_11h26.25.987,2,13,3,2,w,0.3197,0.5604,YR,True,1682652385.9873,none
195,2023-04-28_11h26.28.403,2,13,4,1,p,0.317,none,BR,False,1682652388.4038,none
196,2023-04-28_11h26.30.770,2,13,5,1,w,0.269,none,BL,False,1682652390.77,Wrong_press
197,2023-04-28_11h26.33.436,2,13,6,2,w,0.3338,0.5509,YL,True,1682652393.4367,none
198,2023-04-28_11h26.35.853,2,13,7,1,p,0.3152,none,BR,False,1682652395.8534,none
199,2023-04-28_11h26.38.669,2,13,8,1,p,0.7222,none,BL,False,1682652398.6699,none
200,2023-04-28_11h26.41.336,2,13,9,2,w,0.3059,0.5607,YR,True,1682652401.3364,none
201,2023-04-28_11h26.43.937,2,13,10,1,p,0.4952,none,BL,False,1682652403.9377,none
202,2023-04-28_11h26.46.487,2,13,11,1,p,0.4306,none,BR,False,1682652406.4873,none
203,2023-04-28_11h26.49.069,2,13,12,1,p,0.4811,none,BL,False,1682652409.0696,none
204,2023-04-28_11h26.51.769,2,13,13,2,w,0.5865,0.5178,YR,True,1682652411.77,none
205,2023-04-28_11h26.54.120,2,13,14,1,p,0.2537,none,BR,False,1682652414.1203,none
206,2023-04-28_11h26.56.903,2,13,15,2,w,0.6754,0.555,YR,True,1682652416.9034,none
207,2023-04-28_11h26.59.636,2,13,16,2,w,0.5914,0.5967,YL,True,1682652419.6368,none
208,2023-04-28_11h27.34.269,2,14,1,1,p,0.3387,none,BL,False,1682652454.2697,none
209,2023-04-28_11h27.36.737,2,14,2,1,p,0.37,none,BL,False,1682652456.7373,none
210,2023-04-28_11h27.39.436,2,14,3,2,w,0.336,0.5811,YR,True,1682652459.436,none
211,2023-04-28_11h27.41.886,2,14,4,1,p,0.347,none,BR,False,1682652461.8868,none
212,2023-04-28_11h27.44.387,2,14,5,1,p,0.4011,none,BR,False,1682652464.3871,none
213,2023-04-28_11h27.46.853,2,14,6,1,p,0.3649,none,BR,False,1682652466.8532,none
214,2023-04-28_11h27.49.520,2,14,7,2,w,0.3787,0.5459,YL,True,1682652469.5205,none
215,2023-04-28_11h27.51.986,2,14,8,1,p,0.368,none,BR,False,1682652471.9869,none
216,2023-04-28_11h27.54.620,2,14,9,1,p,0.5332,none,BL,False,1682652474.6203,none
217,2023-04-28_11h27.57.020,2,14,10,1,p,0.3073,none,BL,False,1682652477.0205,none
218,2023-04-28_11h27.59.670,2,14,11,2,w,0.3873,0.5409,YR,True,1682652479.6701,none
219,2023-04-28_11h28.02.352,2,14,12,2,w,0.3852,0.5697,YL,True,1682652482.3529,none
220,2023-04-28_11h28.04.953,2,14,13,2,w,0.3587,0.4929,YR,True,1682652484.9537,none
221,2023-04-28_11h28.07.603,2,14,14,2,w,0.366,0.537,YL,True,1682652487.6034,none
222,2023-04-28_11h28.10.270,2,14,15,2,w,0.3725,0.5636,YL,True,1682652490.2703,none
223,2023-04-28_11h28.12.886,2,14,16,2,w,0.3376,0.5004,YR,True,1682652492.8866,none
224,2023-04-28_11h28.46.286,2,15,1,2,w,0.6375,0.5072,YR,True,1682652526.2866,none
225,2023-04-28_11h28.48.686,2,15,2,1,p,0.2972,none,BL,False,1682652528.6868,none
226,2023-04-28_11h28.51.120,2,15,3,1,p,0.3293,none,BL,False,1682652531.1203,none
227,2023-04-28_11h28.53.619,2,15,4,1,p,0.3998,none,BR,False,1682652533.6197,none
228,2023-04-28_11h28.56.203,2,15,5,2,w,0.3795,0.458,YL,True,1682652536.2039,none
229,2023-04-28_11h28.58.686,2,15,6,1,p,0.3803,none,BR,False,1682652538.6869,none
230,2023-04-28_11h29.01.087,2,15,7,1,p,0.3053,none,BL,False,1682652541.0871,none
231,2023-04-28_11h29.03.771,2,15,8,2,w,0.5687,0.5007,YR,True,1682652543.7714,none
232,2023-04-28_11h29.06.120,2,15,9,1,p,0.2533,none,BL,False,1682652546.1205,none
233,2023-04-28_11h29.08.703,2,15,10,1,p,0.4797,none,BR,False,1682652548.7033,none
234,2023-04-28_11h29.11.369,2,15,11,2,w,0.5485,0.4636,YL,True,1682652551.3697,none
235,2023-04-28_11h29.13.970,2,15,12,2,w,0.4839,0.4819,YR,True,1682652553.9709,none
236,2023-04-28_11h29.16.603,2,15,13,2,w,0.3652,0.5164,YR,True,1682652556.6033,none
237,2023-04-28_11h29.19.203,2,15,14,2,w,0.3644,0.4902,YL,True,1682652559.2035,none
238,2023-04-28_11h29.21.554,2,15,15,1,p,0.2602,none,BR,False,1682652561.5542,none
239,2023-04-28_11h29.24.153,2,15,16,2,w,0.3577,0.4967,YL,True,1682652564.1533,none
240,2023-04-28_11h30.03.521,2,16,1,2,w,0.4119,none,YL,False,1682652603.521,none
241,2023-04-28_11h30.05.904,2,16,2,1,p,0.287,none,BL,False,1682652605.9044,none
242,2023-04-28_11h30.08.371,2,16,3,2,w,0.3681,none,YL,False,1682652608.3712,none
243,2023-04-28_11h30.10.719,2,16,4,1,p,0.2454,none,BR,False,1682652610.72,none
244,2023-04-28_11h30.13.220,2,16,5,2,w,0.3991,none,YL,False,1682652613.2205,none
245,2023-04-28_11h30.15.704,2,16,6,2,w,0.3869,none,YR,False,1682652615.7043,none
246,2023-04-28_11h30.18.237,2,16,7,1,p,0.4399,none,BL,False,1682652618.2378,none
247,2023-04-28_11h30.20.670,2,16,8,1,p,0.3386,none,BR,False,1682652620.6704,none
248,2023-04-28_11h30.23.170,2,16,9,1,p,0.4014,none,BL,False,1682652623.1704,none
249,2023-04-28_11h30.25.620,2,16,10,1,p,0.3571,none,BR,False,1682652625.6205,none
250,2023-04-28_11h30.28.254,2,16,11,2,w,0.5383,none,YR,False,1682652628.255,none
251,2023-04-28_11h30.30.737,2,16,12,1,p,0.3939,none,BR,False,1682652630.7373,none
252,2023-04-28_11h30.33.154,2,16,13,2,w,0.3184,none,YL,False,1682652633.1549,none
253,2023-04-28_11h30.35.837,2,16,14,2,w,0.5897,none,YR,False,1682652635.837,none
254,2023-04-28_11h30.38.404,2,16,15,1,p,0.4747,none,BL,False,1682652638.404,none
255,2023-04-28_11h30.40.788,2,16,16,2,w,0.2916,none,YR,False,1682652640.788,none
256,2023-04-28_11h31.17.252,2,17,1,1,p,0.2651,none,BR,False,1682652677.2527,none
257,2023-04-28_11h31.19.903,2,17,2,2,w,0.2977,0.5293,YL,True,1682652679.9039,none
258,2023-04-28_11h31.22.553,2,17,3,2,w,0.2881,0.5368,YR,True,1682652682.5536,none
259,2023-04-28_11h31.24.954,2,17,4,1,p,0.3014,none,BR,False,1682652684.954,none
260,2023-04-28_11h31.27.520,2,17,5,2,w,0.2615,0.4484,YL,True,1682652687.5201,none
261,2023-04-28_11h31.30.103,2,17,6,2,w,0.3033,0.4688,YR,True,1682652690.1037,none
262,2023-04-28_11h31.32.621,2,17,7,2,w,0.3196,0.4132,YR,True,1682652692.6213,none
263,2023-04-28_11h31.35.020,2,17,8,1,w,0.2988,none,BL,False,1682652695.0206,Wrong_press
264,2023-04-28_11h31.37.503,2,17,9,1,p,0.3793,none,BL,False,1682652697.5037,none
265,2023-04-28_11h31.40.188,2,17,10,1,p,0.5839,none,BR,False,1682652700.1881,none
266,2023-04-28_11h31.42.836,2,17,11,1,p,0.5483,none,BL,False,1682652702.8369,none
267,2023-04-28_11h31.45.386,2,17,12,2,w,0.3223,0.4475,YR,True,1682652705.3868,none
268,2023-04-28_11h31.48.154,2,17,13,1,p,0.6679,none,BR,False,1682652708.1547,none
269,2023-04-28_11h31.51.204,2,17,14,2,w,0.9186,0.4112,YL,True,1682652711.2046,none
270,2023-04-28_11h31.53.570,2,17,15,1,p,0.2677,none,BL,False,1682652713.5704,none
271,2023-04-28_11h31.56.204,2,17,16,2,w,0.3636,0.5176,YL,True,1682652716.2041,none
272,2023-04-28_11h32.30.470,2,18,1,1,p,0.3302,none,BL,False,1682652750.4703,none
273,2023-04-28_11h32.32.888,2,18,2,1,p,0.321,none,BL,False,1682652752.888,none
274,2023-04-28_11h32.35.787,2,18,3,2,w,0.798,0.4572,YL,True,1682652755.7879,none
275,2023-04-28_11h32.38.170,2,18,4,1,p,0.2915,none,BR,False,1682652758.1709,none
276,2023-04-28_11h32.40.537,2,18,5,1,p,0.2769,none,BR,False,1682652760.5382,none
277,2023-04-28_11h32.42.937,2,18,6,1,p,0.2941,none,BR,False,1682652762.9377,none
278,2023-04-28_11h32.45.319,2,18,7,1,p,0.2779,none,BR,False,1682652765.3199,none
279,2023-04-28_11h32.47.820,2,18,8,2,w,0.3175,0.3846,YL,True,1682652767.8208,none
280,2023-04-28_11h32.50.371,2,18,9,2,w,0.403,0.4332,YL,True,1682652770.3714,none
281,2023-04-28_11h32.52.987,2,18,10,2,w,0.3493,0.4975,YR,True,1682652772.9871,none
282,2023-04-28_11h32.55.570,2,18,11,2,w,0.3318,0.4735,YR,True,1682652775.5707,none
283,2023-04-28_11h32.58.071,2,18,12,2,w,0.3165,0.3876,YL,True,1682652778.0713,none
284,2023-04-28_11h33.00.687,2,18,13,2,w,0.3922,0.5134,YR,True,1682652780.6878,none
285,2023-04-28_11h33.03.305,2,18,14,2,w,0.3279,0.4919,YR,True,1682652783.3052,none
286,2023-04-28_11h33.05.753,2,18,15,1,p,0.3509,none,BL,False,1682652785.7539,none
287,2023-04-28_11h33.08.171,2,18,16,1,p,0.3171,none,BL,False,1682652788.1715,none
288,2023-04-28_11h33.46.804,2,19,1,1,p,0.3069,none,BL,False,1682652826.8041,none
289,2023-04-28_11h33.49.803,2,19,2,2,w,0.8926,0.3682,YL,True,1682652829.8039,none
290,2023-04-28_11h33.52.221,2,19,3,1,p,0.323,none,BR,False,1682652832.2211,none
291,2023-04-28_11h33.54.638,2,19,4,1,p,0.3231,none,BR,False,1682652834.6382,none
292,2023-04-28_11h33.57.487,2,19,5,2,w,0.7475,0.4603,YR,True,1682652837.488,none
293,2023-04-28_11h34.00.070,2,19,6,2,w,0.4734,0.419,YR,True,1682652840.0704,none
294,2023-04-28_11h34.02.554,2,19,7,2,w,0.3706,0.3686,YR,True,1682652842.5542,none
295,2023-04-28_11h34.05.054,2,19,8,2,w,0.3573,0.3948,YL,True,1682652845.055,none
296,2023-04-28_11h34.07.554,2,19,9,1,p,0.4002,none,BR,False,1682652847.5542,none
297,2023-04-28_11h34.10.070,2,19,10,2,w,0.3412,0.4096,YL,True,1682652850.0718,none
298,2023-04-28_11h34.12.622,2,19,11,2,w,0.3608,0.4348,YR,True,1682652852.6221,none
299,2023-04-28_11h34.15.154,2,19,12,2,w,0.3379,0.4025,YL,True,1682652855.1543,none
300,2023-04-28_11h34.17.621,2,19,13,1,p,0.3728,none,BL,False,1682652857.6211,none
301,2023-04-28_11h34.20.154,2,19,14,1,p,0.4343,none,BL,False,1682652860.1543,none
302,2023-04-28_11h34.22.655,2,19,15,1,p,0.4058,none,BR,False,1682652862.6553,none
303,2023-04-28_11h34.25.136,2,19,16,1,p,0.3683,none,BL,False,1682652865.137,none
304,2023-04-28_11h35.01.571,2,20,1,1,p,0.4585,none,BR,False,1682652901.5717,none
305,2023-04-28_11h35.04.121,2,20,2,2,w,0.2686,0.4414,YL,True,1682652904.1215,none
306,2023-04-28_11h35.06.554,2,20,3,1,p,0.3344,none,BL,False,1682652906.5548,none
307,2023-04-28_11h35.09.004,2,20,4,1,p,0.3494,none,BL,False,1682652909.0045,none
308,2023-04-28_11h35.11.404,2,20,5,1,p,0.3075,none,BL,False,1682652911.4044,none
309,2023-04-28_11h35.13.853,2,20,6,2,w,0.3437,0.3061,YR,True,1682652913.8538,none
310,2023-04-28_11h35.16.204,2,20,7,1,p,0.2563,none,BR,False,1682652916.2048,none
311,2023-04-28_11h35.18.754,2,20,8,2,w,0.3393,0.4471,YR,True,1682652918.7545,none
312,2023-04-28_11h35.21.322,2,20,9,2,w,0.3573,0.4627,YL,True,1682652921.3221,none
313,2023-04-28_11h35.23.721,2,20,10,1,p,0.2946,none,BR,False,1682652923.7212,none
314,2023-04-28_11h35.26.187,2,20,11,2,w,0.3554,0.3223,YR,True,1682652926.1875,none
315,2023-04-28_11h35.28.655,2,20,12,1,p,0.3717,none,BL,False,1682652928.6554,none
316,2023-04-28_11h35.31.070,2,20,13,1,p,0.3123,none,BR,False,1682652931.0709,none
317,2023-04-28_11h35.33.555,2,20,14,2,w,0.3528,0.3665,YL,True,1682652933.5553,none
318,2023-04-28_11h35.35.988,2,20,15,2,w,0.301,0.3208,YR,True,1682652935.9881,none
319,2023-04-28_11h35.38.404,2,20,16,2,w,0.3187,0.3106,YL,True,1682652938.4042,none
