,timestamp,experiment_ID,block_ID,stimulus_ID,subject,key_press,rt,fake_human_rt,trial_stim,fake_or_not,UNIX_time,wrong_type
0,2023-04-14_16h46.53.535,0414_05,1,1,1,p,0.3996,none,BL,False,1681462013.5357,none
1,2023-04-14_16h46.55.952,0414_05,1,2,1,p,0.3158,none,BL,False,1681462015.9523,none
2,2023-04-14_16h46.58.401,0414_05,1,3,2,w,0.3463,none,YR,False,1681462018.4015,none
3,2023-04-14_16h47.00.867,0414_05,1,4,1,p,0.3771,none,BR,False,1681462020.8677,none
4,2023-04-14_16h47.03.268,0414_05,1,5,1,p,0.3097,none,BR,False,1681462023.2681,none
5,2023-04-14_16h47.05.701,0414_05,1,6,1,p,0.3423,none,BR,False,1681462025.7015,none
6,2023-04-14_16h47.08.218,0414_05,1,7,2,w,0.4128,none,YL,False,1681462028.2181,none
7,2023-04-14_16h47.10.619,0414_05,1,8,1,p,0.3039,none,BL,False,1681462030.6192,none
8,2023-04-14_16h47.13.151,0414_05,1,9,2,w,0.4319,none,YL,False,1681462033.152,none
9,2023-04-14_16h47.15.717,0414_05,1,10,2,w,0.4665,none,YL,False,1681462035.7175,none
10,2023-04-14_16h47.18.117,0414_05,1,11,2,w,0.3004,none,YL,False,1681462038.1174,none
11,2023-04-14_16h47.20.568,0414_05,1,12,2,w,0.3562,none,YR,False,1681462040.5687,none
12,2023-04-14_16h47.22.985,0414_05,1,13,2,w,0.3142,none,YR,False,1681462042.9853,none
13,2023-04-14_16h47.25.534,0414_05,1,14,1,p,0.4576,none,BL,False,1681462045.5347,none
14,2023-04-14_16h47.27.969,0414_05,1,15,1,p,0.3392,none,BR,False,1681462047.9692,none
15,2023-04-14_16h47.30.718,0414_05,1,16,2,w,0.6574,none,YR,False,1681462050.7186,none
16,2023-04-14_16h48.06.618,0414_05,2,1,1,p,0.3539,none,BL,False,1681462086.6186,none
17,2023-04-14_16h48.09.018,0414_05,2,2,1,p,0.2961,none,BR,False,1681462089.0189,none
18,2023-04-14_16h48.11.451,0414_05,2,3,1,p,0.3359,none,BR,False,1681462091.4518,none
19,2023-04-14_16h48.13.968,0414_05,2,4,2,w,0.4226,none,YR,False,1681462093.9688,none
20,2023-04-14_16h48.16.501,0414_05,2,5,1,p,0.4339,none,BL,False,1681462096.5012,none
21,2023-04-14_16h48.19.051,0414_05,2,6,2,w,0.445,none,YL,False,1681462099.0514,none
22,2023-04-14_16h48.21.669,0414_05,2,7,1,p,0.5264,none,BL,False,1681462101.6695,none
23,2023-04-14_16h48.24.119,0414_05,2,8,2,w,0.3503,none,YR,False,1681462104.1193,none
24,2023-04-14_16h48.26.551,0414_05,2,9,1,p,0.3323,none,BR,False,1681462106.5519,none
25,2023-04-14_16h48.29.134,0414_05,2,10,1,p,0.4822,none,BR,False,1681462109.1349,none
26,2023-04-14_16h48.31.718,0414_05,2,11,2,w,0.483,none,YL,False,1681462111.718,none
27,2023-04-14_16h48.34.268,0414_05,2,12,2,w,0.4519,none,YL,False,1681462114.2688,none
28,2023-04-14_16h48.36.702,0414_05,2,13,2,w,0.3416,none,YL,False,1681462116.703,none
29,2023-04-14_16h48.39.102,0414_05,2,14,2,w,0.2914,none,YR,False,1681462119.1028,none
30,2023-04-14_16h48.41.469,0414_05,2,15,2,w,0.276,none,YR,False,1681462121.4692,none
31,2023-04-14_16h48.43.867,0414_05,2,16,1,p,0.302,none,BL,False,1681462123.8679,none
32,2023-04-14_16h49.15.384,0414_05,3,1,2,w,0.2993,0.7323,YR,True,1681462155.3849,none
33,2023-04-14_16h49.17.819,0414_05,3,2,1,p,0.3289,none,BL,False,1681462157.8194,none
34,2023-04-14_16h49.20.668,0414_05,3,3,2,w,0.2797,0.7323,YR,True,1681462160.6687,none
35,2023-04-14_16h49.23.136,0414_05,3,4,1,p,0.3662,none,BR,False,1681462163.136,none
36,2023-04-14_16h49.25.617,0414_05,3,5,1,p,0.387,none,BR,False,1681462165.6179,none
37,2023-04-14_16h49.28.035,0414_05,3,6,1,p,0.3194,none,BR,False,1681462168.0354,none
38,2023-04-14_16h49.30.885,0414_05,3,7,2,w,0.4155,0.7323,YL,True,1681462170.8852,none
39,2023-04-14_16h49.33.734,0414_05,3,8,2,w,0.6535,0.7323,YL,True,1681462173.7349,none
40,2023-04-14_16h49.36.584,0414_05,3,9,2,w,0.4111,0.7323,YL,True,1681462176.5846,none
41,2023-04-14_16h49.39.419,0414_05,3,10,2,w,0.2731,0.7323,YR,True,1681462179.4196,none
42,2023-04-14_16h49.41.835,0414_05,3,11,1,p,0.3198,none,BL,False,1681462181.8357,none
43,2023-04-14_16h49.44.669,0414_05,3,12,2,w,0.3756,0.7323,YR,True,1681462184.6695,none
44,2023-04-14_16h49.47.118,0414_05,3,13,1,p,0.3329,none,BR,False,1681462187.1185,none
45,2023-04-14_16h49.49.569,0414_05,3,14,1,p,0.3478,none,BL,False,1681462189.5699,none
46,2023-04-14_16h49.52.435,0414_05,3,15,2,w,0.4335,0.7323,YL,True,1681462192.4353,none
47,2023-04-14_16h49.54.868,0414_05,3,16,1,p,0.3103,none,BL,False,1681462194.8681,none
48,2023-04-14_16h50.28.918,0414_05,4,1,1,p,0.3573,none,BL,False,1681462228.919,none
49,2023-04-14_16h50.31.469,0414_05,4,2,2,w,0.4519,none,YL,False,1681462231.4699,none
50,2023-04-14_16h50.33.869,0414_05,4,3,1,p,0.3097,none,BL,False,1681462233.8694,none
51,2023-04-14_16h50.36.285,0414_05,4,4,2,w,0.3176,none,YR,False,1681462236.285,none
52,2023-04-14_16h50.38.668,0414_05,4,5,2,w,0.2846,none,YR,False,1681462238.6687,none
53,2023-04-14_16h50.41.085,0414_05,4,6,2,w,0.3256,none,YR,False,1681462241.0858,none
54,2023-04-14_16h50.43.485,0414_05,4,7,1,p,0.3009,none,BR,False,1681462243.4859,none
55,2023-04-14_16h50.46.285,0414_05,4,8,1,p,0.701,none,BR,False,1681462246.2854,none
56,2023-04-14_16h50.48.701,0414_05,4,9,1,p,0.3249,none,BR,False,1681462248.7017,none
57,2023-04-14_16h50.51.118,0414_05,4,10,2,w,0.3165,none,YL,False,1681462251.1186,none
58,2023-04-14_16h50.53.502,0414_05,4,11,2,w,0.291,none,YR,False,1681462253.502,none
59,2023-04-14_16h50.55.886,0414_05,4,12,1,p,0.2922,none,BL,False,1681462255.8862,none
60,2023-04-14_16h50.58.601,0414_05,4,13,2,w,0.6132,none,YL,False,1681462258.6016,none
61,2023-04-14_16h51.01.235,0414_05,4,14,1,p,0.5286,none,BR,False,1681462261.2352,none
62,2023-04-14_16h51.03.769,0414_05,4,15,1,p,0.4314,none,BL,False,1681462263.7694,none
63,2023-04-14_16h51.06.185,0414_05,4,16,2,w,0.3139,none,YL,False,1681462266.186,none
64,2023-04-14_16h51.40.685,0414_05,5,1,1,p,0.3748,none,BR,False,1681462300.6853,none
65,2023-04-14_16h51.43.501,0414_05,5,2,2,w,0.2915,0.7038,YR,True,1681462303.5017,none
66,2023-04-14_16h51.46.319,0414_05,5,3,2,w,0.4837,0.7054,YL,True,1681462306.3193,none
67,2023-04-14_16h51.48.785,0414_05,5,4,1,p,0.3718,none,BL,False,1681462308.7854,none
68,2023-04-14_16h51.51.602,0414_05,5,5,2,w,0.3523,0.7069,YL,True,1681462311.6021,none
69,2023-04-14_16h51.54.102,0414_05,5,6,1,p,0.4091,none,BL,False,1681462314.1023,none
70,2023-04-14_16h51.56.619,0414_05,5,7,1,p,0.4204,none,BR,False,1681462316.6195,none
71,2023-04-14_16h51.59.185,0414_05,5,8,1,p,0.4645,none,BL,False,1681462319.185,none
72,2023-04-14_16h52.01.637,0414_05,5,9,1,p,0.3529,none,BR,False,1681462321.6373,none
73,2023-04-14_16h52.04.452,0414_05,5,10,2,w,0.3027,0.7049,YR,True,1681462324.4526,none
74,2023-04-14_16h52.06.919,0414_05,5,11,1,p,0.3739,none,BR,False,1681462326.9191,none
75,2023-04-14_16h52.09.736,0414_05,5,12,2,w,0.5477,0.7039,YR,True,1681462329.736,none
76,2023-04-14_16h52.12.268,0414_05,5,13,1,p,0.4344,none,BL,False,1681462332.2685,none
77,2023-04-14_16h52.15.387,0414_05,5,14,2,w,1.01,0.7057,YL,True,1681462335.387,none
78,2023-04-14_16h52.18.202,0414_05,5,15,2,w,0.3599,0.7027,YR,True,1681462338.2025,none
79,2023-04-14_16h52.21.035,0414_05,5,16,2,w,0.5281,0.7045,YL,True,1681462341.0353,none
80,2023-04-14_16h53.15.335,0414_05,6,1,1,p,0.4153,none,BL,False,1681462395.3352,none
81,2023-04-14_16h53.17.818,0414_05,6,2,1,p,0.3871,none,BR,False,1681462397.8185,none
82,2023-04-14_16h53.20.219,0414_05,6,3,1,p,0.2958,none,BL,False,1681462400.2191,none
83,2023-04-14_16h53.22.602,0414_05,6,4,1,p,0.2874,none,BR,False,1681462402.6023,none
84,2023-04-14_16h53.25.385,0414_05,6,5,2,w,0.2479,0.6681,YL,True,1681462405.3856,none
85,2023-04-14_16h53.28.168,0414_05,6,6,2,w,0.304,0.6717,YR,True,1681462408.1689,none
86,2023-04-14_16h53.30.968,0414_05,6,7,2,w,0.313,0.6728,YR,True,1681462410.9689,none
87,2023-04-14_16h53.33.752,0414_05,6,8,2,w,0.2733,0.6769,YL,True,1681462413.7526,none
88,2023-04-14_16h53.36.185,0414_05,6,9,1,p,0.3377,none,BL,False,1681462416.1868,none
89,2023-04-14_16h53.38.968,0414_05,6,10,2,w,0.4484,0.6747,YL,True,1681462418.969,none
90,2023-04-14_16h53.41.453,0414_05,6,11,1,p,0.3934,none,BL,False,1681462421.4533,none
91,2023-04-14_16h53.44.236,0414_05,6,12,2,w,0.3745,0.6752,YL,True,1681462424.2362,none
92,2023-04-14_16h53.47.020,0414_05,6,13,2,w,0.3263,0.6763,YR,True,1681462427.02,none
93,2023-04-14_16h53.49.453,0414_05,6,14,1,p,0.3429,none,BR,False,1681462429.4531,none
94,2023-04-14_16h53.52.252,0414_05,6,15,2,w,0.3015,0.6835,YR,True,1681462432.2525,none
95,2023-04-14_16h53.54.752,0414_05,6,16,1,p,0.3977,none,BR,False,1681462434.7521,none
96,2023-04-14_16h54.30.151,0414_05,7,1,1,p,0.4478,none,BL,False,1681462470.152,none
97,2023-04-14_16h54.32.936,0414_05,7,2,2,w,0.3454,0.6553,YL,True,1681462472.9364,none
98,2023-04-14_16h54.35.586,0414_05,7,3,1,p,0.5457,none,BL,False,1681462475.5868,none
99,2023-04-14_16h54.38.335,0414_05,7,4,2,w,0.3044,0.6478,YR,True,1681462478.3358,none
100,2023-04-14_16h54.40.736,0414_05,7,5,1,p,0.2974,none,BL,False,1681462480.7372,none
101,2023-04-14_16h54.43.403,0414_05,7,6,1,p,0.5701,none,BL,False,1681462483.4032,none
102,2023-04-14_16h54.45.802,0414_05,7,7,1,p,0.3037,none,BR,False,1681462485.8023,none
103,2023-04-14_16h54.48.203,0414_05,7,8,1,p,0.3036,none,BR,False,1681462488.2033,none
104,2023-04-14_16h54.50.952,0414_05,7,9,2,w,0.3356,0.6433,YR,True,1681462490.9529,none
105,2023-04-14_16h54.53.435,0414_05,7,10,1,p,0.3778,none,BR,False,1681462493.4356,none
106,2023-04-14_16h54.56.186,0414_05,7,11,2,w,0.4703,0.6404,YL,True,1681462496.1863,none
107,2023-04-14_16h54.58.936,0414_05,7,12,2,w,0.2568,0.6455,YL,True,1681462498.9367,none
108,2023-04-14_16h55.01.702,0414_05,7,13,2,w,0.2505,0.6588,YR,True,1681462501.7028,none
109,2023-04-14_16h55.04.452,0414_05,7,14,2,w,0.3072,0.6421,YR,True,1681462504.4525,none
110,2023-04-14_16h55.06.919,0414_05,7,15,1,p,0.3738,none,BR,False,1681462506.9198,none
111,2023-04-14_16h55.09.669,0414_05,7,16,2,w,0.2747,0.651,YL,True,1681462509.6695,none
112,2023-04-14_16h55.47.519,0414_05,8,1,2,w,0.3209,0.632,YR,True,1681462547.5199,none
113,2023-04-14_16h55.50.187,0414_05,8,2,1,p,0.5706,none,BL,False,1681462550.1874,none
114,2023-04-14_16h55.52.902,0414_05,8,3,2,w,0.36,0.6045,YL,True,1681462552.9028,none
115,2023-04-14_16h55.55.603,0414_05,8,4,2,w,0.2597,0.6007,YR,True,1681462555.6031,none
116,2023-04-14_16h55.58.036,0414_05,8,5,1,p,0.3277,none,BL,False,1681462558.0366,none
117,2023-04-14_16h56.00.503,0414_05,8,6,1,p,0.3666,none,BL,False,1681462560.5037,none
118,2023-04-14_16h56.02.970,0414_05,8,7,1,p,0.3715,none,BL,False,1681462562.9702,none
119,2023-04-14_16h56.05.437,0414_05,8,8,1,p,0.3768,none,BR,False,1681462565.4372,none
120,2023-04-14_16h56.08.186,0414_05,8,9,2,w,0.3338,0.6363,YL,True,1681462568.1864,none
121,2023-04-14_16h56.10.653,0414_05,8,10,1,p,0.3765,none,BR,False,1681462570.6539,none
122,2023-04-14_16h56.13.370,0414_05,8,11,2,w,0.2853,0.6033,YR,True,1681462573.3704,none
123,2023-04-14_16h56.16.102,0414_05,8,12,2,w,0.401,0.6256,YL,True,1681462576.1027,none
124,2023-04-14_16h56.18.835,0414_05,8,13,2,w,0.3235,0.6246,YL,True,1681462578.8359,none
125,2023-04-14_16h56.21.269,0414_05,8,14,1,p,0.3342,none,BR,False,1681462581.2691,none
126,2023-04-14_16h56.24.019,0414_05,8,15,2,w,0.5012,0.6356,YR,True,1681462584.0194,none
127,2023-04-14_16h56.26.553,0414_05,8,16,1,p,0.4306,none,BR,False,1681462586.5532,none
128,2023-04-14_16h57.00.386,0414_05,9,1,2,w,0.3078,0.6008,YR,True,1681462620.3862,none
129,2023-04-14_16h57.03.086,0414_05,9,2,2,w,0.3439,0.5899,YL,True,1681462623.0865,none
130,2023-04-14_16h57.05.802,0414_05,9,3,2,w,0.3563,0.6104,YL,True,1681462625.8027,none
131,2023-04-14_16h57.08.485,0414_05,9,4,2,w,0.3909,0.585,YR,True,1681462628.4859,none
132,2023-04-14_16h57.10.986,0414_05,9,5,1,p,0.3962,none,BR,False,1681462630.9868,none
133,2023-04-14_16h57.13.369,0414_05,9,6,1,p,0.288,none,BL,False,1681462633.3699,none
134,2023-04-14_16h57.15.753,0414_05,9,7,1,p,0.2808,none,BL,False,1681462635.7532,none
135,2023-04-14_16h57.18.436,0414_05,9,8,2,w,0.3926,0.5715,YL,True,1681462638.4364,none
136,2023-04-14_16h57.20.902,0414_05,9,9,1,p,0.3657,none,BR,False,1681462640.9029,none
137,2023-04-14_16h57.23.586,0414_05,9,10,2,w,0.5742,0.5703,YL,True,1681462643.5867,none
138,2023-04-14_16h57.26.135,0414_05,9,11,1,p,0.4476,none,BL,False,1681462646.1358,none
139,2023-04-14_16h57.28.920,0414_05,9,12,1,p,0.6896,none,BL,False,1681462648.921,none
140,2023-04-14_16h57.31.736,0414_05,9,13,2,w,0.7066,0.6005,YR,True,1681462651.7363,none
141,2023-04-14_16h57.34.120,0414_05,9,14,1,p,0.2902,none,BR,False,1681462654.1207,none
142,2023-04-14_16h57.36.919,0414_05,9,15,2,w,0.672,0.5737,YR,True,1681462656.9198,none
143,2023-04-14_16h57.39.336,0414_05,9,16,1,p,0.3229,none,BR,False,1681462659.3367,none
144,2023-04-14_16h58.12.520,0414_05,10,1,2,w,0.2682,0.5413,YR,True,1681462692.5205,none
145,2023-04-14_16h58.15.203,0414_05,10,2,2,w,0.3067,0.572,YL,True,1681462695.2036,none
146,2023-04-14_16h58.17.703,0414_05,10,3,1,p,0.3988,none,BR,False,1681462697.7037,none
147,2023-04-14_16h58.20.203,0414_05,10,4,1,p,0.4105,none,BR,False,1681462700.2035,none
148,2023-04-14_16h58.22.686,0414_05,10,5,1,p,0.3907,none,BL,False,1681462702.6864,none
149,2023-04-14_16h58.25.186,0414_05,10,6,1,p,0.4028,none,BR,False,1681462705.1862,none
150,2023-04-14_16h58.27.703,0414_05,10,7,1,p,0.4158,none,BL,False,1681462707.7034,none
151,2023-04-14_16h58.30.386,0414_05,10,8,2,w,0.419,0.5722,YL,True,1681462710.3865,none
152,2023-04-14_16h58.33.070,0414_05,10,9,2,w,0.3827,0.5742,YL,True,1681462713.07,none
153,2023-04-14_16h58.35.770,0414_05,10,10,2,w,0.3163,0.58,YL,True,1681462715.7704,none
154,2023-04-14_16h58.38.353,0414_05,10,11,1,p,0.4803,none,BL,False,1681462718.3535,none
155,2023-04-14_16h58.40.803,0414_05,10,12,1,p,0.3529,none,BL,False,1681462720.8031,none
156,2023-04-14_16h58.43.454,0414_05,10,13,2,w,0.4072,0.5422,YR,True,1681462723.4542,none
157,2023-04-14_16h58.46.136,0414_05,10,14,2,w,0.3246,0.5527,YR,True,1681462726.1365,none
158,2023-04-14_16h58.48.803,0414_05,10,15,2,w,0.2968,0.5524,YR,True,1681462728.8031,none
159,2023-04-14_16h58.51.254,0414_05,10,16,1,p,0.3518,none,BR,False,1681462731.2544,none
160,2023-04-14_16h59.56.937,0414_05,11,1,1,p,0.3485,none,BR,False,1681462796.9371,none
161,2023-04-14_16h59.59.603,0414_05,11,2,2,w,0.3055,0.5514,YR,True,1681462799.6033,none
162,2023-04-14_17h00.02.020,0414_05,11,3,1,p,0.311,none,BR,False,1681462802.0201,none
163,2023-04-14_17h00.04.636,0414_05,11,4,2,w,0.3579,0.5056,YR,True,1681462804.6364,none
164,2023-04-14_17h00.07.403,0414_05,11,5,2,w,0.6444,0.5003,YL,True,1681462807.4037,none
165,2023-04-14_17h00.10.053,0414_05,11,6,2,w,0.2869,0.5351,YL,True,1681462810.0537,none
166,2023-04-14_17h00.12.670,0414_05,11,7,2,w,0.3327,0.5003,YL,True,1681462812.6704,none
167,2023-04-14_17h00.15.036,0414_05,11,8,1,p,0.276,none,BL,False,1681462815.0366,none
168,2023-04-14_17h00.17.703,0414_05,11,9,2,w,0.2696,0.5553,YR,True,1681462817.7033,none
169,2023-04-14_17h00.20.387,0414_05,11,10,2,w,0.5571,0.5453,YL,True,1681462820.3879,none
170,2023-04-14_17h00.22.819,0414_05,11,11,1,p,0.3277,none,BR,False,1681462822.8197,none
171,2023-04-14_17h00.25.286,0414_05,11,12,1,p,0.3737,none,BL,False,1681462825.2865,none
172,2023-04-14_17h00.27.937,0414_05,11,13,2,w,0.2439,0.5438,YR,True,1681462827.9372,none
173,2023-04-14_17h00.30.670,0414_05,11,14,1,p,0.6334,none,BL,False,1681462830.6705,none
174,2023-04-14_17h00.33.069,0414_05,11,15,1,p,0.3001,none,BL,False,1681462833.0694,none
175,2023-04-14_17h00.35.669,0414_05,11,16,1,p,0.5077,none,BR,False,1681462835.6699,none
176,2023-04-14_17h01.10.536,0414_05,12,1,2,w,0.2886,none,YL,False,1681462870.5366,none
177,2023-04-14_17h01.13.103,0414_05,12,2,1,p,0.4654,none,BL,False,1681462873.1038,none
178,2023-04-14_17h01.15.519,0414_05,12,3,1,p,0.323,none,BR,False,1681462875.5198,none
179,2023-04-14_17h01.17.986,0414_05,12,4,2,w,0.3694,none,YL,False,1681462877.9869,none
180,2023-04-14_17h01.20.403,0414_05,12,5,2,w,0.3115,none,YR,False,1681462880.4038,none
181,2023-04-14_17h01.22.837,0414_05,12,6,1,p,0.3268,none,BL,False,1681462882.8379,none
182,2023-04-14_17h01.25.387,0414_05,12,7,2,w,0.437,none,YL,False,1681462885.3872,none
183,2023-04-14_17h01.27.804,0414_05,12,8,1,p,0.3194,none,BR,False,1681462887.8044,none
184,2023-04-14_17h01.30.187,0414_05,12,9,2,w,0.2788,none,YR,False,1681462890.1871,none
185,2023-04-14_17h01.32.554,0414_05,12,10,1,p,0.2715,none,BL,False,1681462892.5542,none
186,2023-04-14_17h01.35.004,0414_05,12,11,1,p,0.3524,none,BR,False,1681462895.0049,none
187,2023-04-14_17h01.37.536,0414_05,12,12,1,p,0.4303,none,BL,False,1681462897.5376,none
188,2023-04-14_17h01.39.937,0414_05,12,13,2,w,0.2969,none,YR,False,1681462899.9379,none
189,2023-04-14_17h01.42.386,0414_05,12,14,1,p,0.3463,none,BR,False,1681462902.3863,none
190,2023-04-14_17h01.44.786,0414_05,12,15,2,w,0.2952,none,YL,False,1681462904.7869,none
191,2023-04-14_17h01.47.286,0414_05,12,16,2,w,0.3992,none,YR,False,1681462907.2867,none
192,2023-04-14_17h02.20.871,0414_05,13,1,1,p,0.3411,none,BR,False,1681462940.871,none
193,2023-04-14_17h02.23.271,0414_05,13,2,1,p,0.3073,none,BL,False,1681462943.2712,none
194,2023-04-14_17h02.25.870,0414_05,13,3,2,w,0.4116,0.4764,YR,True,1681462945.8702,none
195,2023-04-14_17h02.28.487,0414_05,13,4,2,w,0.5,0.4679,YL,True,1681462948.4876,none
196,2023-04-14_17h02.30.903,0414_05,13,5,1,p,0.3149,none,BL,False,1681462950.904,none
197,2023-04-14_17h02.33.537,0414_05,13,6,2,w,0.3305,0.5204,YR,True,1681462953.5377,none
198,2023-04-14_17h02.36.187,0414_05,13,7,2,w,0.3532,0.5405,YL,True,1681462956.1872,none
199,2023-04-14_17h02.39.270,0414_05,13,8,2,w,0.9722,0.5392,YL,True,1681462959.2704,none
200,2023-04-14_17h02.41.653,0414_05,13,9,1,p,0.2918,none,BL,False,1681462961.6542,none
201,2023-04-14_17h02.44.286,0414_05,13,10,2,w,0.3325,0.5206,YL,True,1681462964.2866,none
202,2023-04-14_17h02.46.920,0414_05,13,11,2,w,0.2592,0.5342,YR,True,1681462966.9204,none
203,2023-04-14_17h02.49.270,0414_05,13,12,1,w,0.2502,none,BR,False,1681462969.2702,Wrong_press
204,2023-04-14_17h02.51.804,0414_05,13,13,1,p,0.4437,none,BR,False,1681462971.8042,none
205,2023-04-14_17h02.54.237,0414_05,13,14,1,p,0.3345,none,BL,False,1681462974.2373,none
206,2023-04-14_17h02.56.720,0414_05,13,15,1,p,0.3887,none,BR,False,1681462976.7201,none
207,2023-04-14_17h02.59.321,0414_05,13,16,2,w,0.298,0.4879,YR,True,1681462979.3215,none
208,2023-04-14_17h03.36.437,0414_05,14,1,2,w,0.2526,0.4951,YR,True,1681463016.4372,none
209,2023-04-14_17h03.38.937,0414_05,14,2,1,p,0.4054,none,BR,False,1681463018.9372,none
210,2023-04-14_17h03.41.553,0414_05,14,3,2,w,0.2965,0.4957,YR,True,1681463021.5538,none
211,2023-04-14_17h03.44.137,0414_05,14,4,2,w,0.3207,0.4795,YL,True,1681463024.1376,none
212,2023-04-14_17h03.46.620,0414_05,14,5,1,p,0.3934,none,BL,False,1681463026.6206,none
213,2023-04-14_17h03.49.237,0414_05,14,6,1,p,0.5177,none,BL,False,1681463029.2375,none
214,2023-04-14_17h03.51.753,0414_05,14,7,1,p,0.4119,none,BR,False,1681463031.7535,none
215,2023-04-14_17h03.54.336,0414_05,14,8,1,p,0.4879,none,BR,False,1681463034.3363,none
216,2023-04-14_17h03.57.003,0414_05,14,9,2,w,0.5453,0.4512,YR,True,1681463037.0037,none
217,2023-04-14_17h03.59.570,0414_05,14,10,2,w,0.4144,0.4501,YL,True,1681463039.5703,none
218,2023-04-14_17h04.02.136,0414_05,14,11,1,p,0.4637,none,BR,False,1681463042.1368,none
219,2023-04-14_17h04.05.237,0414_05,14,12,1,p,1.0008,none,BL,False,1681463045.2376,none
220,2023-04-14_17h04.07.805,0414_05,14,13,2,w,0.4522,0.4497,YR,True,1681463047.8054,none
221,2023-04-14_17h04.10.437,0414_05,14,14,2,w,0.4466,0.5103,YL,True,1681463050.4373,none
222,2023-04-14_17h04.13.054,0414_05,14,15,1,p,0.5244,none,BL,False,1681463053.0543,none
223,2023-04-14_17h04.15.670,0414_05,14,16,2,w,0.3479,0.5015,YL,True,1681463055.6709,none
224,2023-04-14_17h04.49.054,0414_05,15,1,1,p,0.3921,none,BR,False,1681463089.0541,none
225,2023-04-14_17h04.51.587,0414_05,15,2,1,p,0.4372,none,BR,False,1681463091.5872,none
226,2023-04-14_17h04.54.020,0414_05,15,3,1,p,0.3428,none,BL,False,1681463094.0207,none
227,2023-04-14_17h04.56.587,0414_05,15,4,2,w,0.4533,0.4005,YL,True,1681463096.5876,none
228,2023-04-14_17h04.59.188,0414_05,15,5,2,w,0.3025,0.4862,YR,True,1681463099.188,none
229,2023-04-14_17h05.01.736,0414_05,15,6,2,w,0.3111,0.4363,YR,True,1681463101.7368,none
230,2023-04-14_17h05.04.187,0414_05,15,7,1,p,0.3435,none,BL,False,1681463104.1876,none
231,2023-04-14_17h05.06.770,0414_05,15,8,2,w,0.3746,0.4777,YR,True,1681463106.7709,none
232,2023-04-14_17h05.09.504,0414_05,15,9,2,w,0.6077,0.4266,YL,True,1681463109.5049,none
233,2023-04-14_17h05.12.022,0414_05,15,10,2,w,0.3379,0.4097,YL,True,1681463112.0224,none
234,2023-04-14_17h05.14.570,0414_05,15,11,1,p,0.4286,none,BL,False,1681463114.5708,none
235,2023-04-14_17h05.17.088,0414_05,15,12,1,p,0.4158,none,BR,False,1681463117.0881,none
236,2023-04-14_17h05.19.621,0414_05,15,13,2,w,0.4351,0.4089,YL,True,1681463119.6211,none
237,2023-04-14_17h05.22.037,0414_05,15,14,1,p,0.3174,none,BR,False,1681463122.0375,none
238,2023-04-14_17h05.24.537,0414_05,15,15,1,p,0.3967,none,BL,False,1681463124.5373,none
239,2023-04-14_17h05.27.070,0414_05,15,16,2,w,0.313,0.4201,YR,True,1681463127.0708,none
240,2023-04-14_17h06.43.737,0414_05,16,1,2,w,0.3993,0.4669,YR,True,1681463203.7371,none
241,2023-04-14_17h06.46.221,0414_05,16,2,1,p,0.3846,none,BR,False,1681463206.2213,none
242,2023-04-14_17h06.48.754,0414_05,16,3,2,w,0.3251,0.4338,YL,True,1681463208.7547,none
243,2023-04-14_17h06.51.238,0414_05,16,4,1,p,0.3909,none,BL,False,1681463211.2385,none
244,2023-04-14_17h06.53.738,0414_05,16,5,1,p,0.3958,none,BR,False,1681463213.7381,none
245,2023-04-14_17h06.56.254,0414_05,16,6,2,w,0.3523,0.3964,YR,True,1681463216.2549,none
246,2023-04-14_17h06.58.771,0414_05,16,7,2,w,0.3962,0.3967,YR,True,1681463218.7711,none
247,2023-04-14_17h07.01.338,0414_05,16,8,1,p,0.4631,none,BL,False,1681463221.3384,none
248,2023-04-14_17h07.03.853,0414_05,16,9,2,w,0.337,0.4091,YL,True,1681463223.8538,none
249,2023-04-14_17h07.06.404,0414_05,16,10,2,w,0.2593,0.438,YR,True,1681463226.4044,none
250,2023-04-14_17h07.08.938,0414_05,16,11,2,w,0.3099,0.4361,YL,True,1681463228.9381,none
251,2023-04-14_17h07.11.471,0414_05,16,12,1,p,0.4325,none,BR,False,1681463231.471,none
252,2023-04-14_17h07.14.004,0414_05,16,13,1,p,0.435,none,BR,False,1681463234.0047,none
253,2023-04-14_17h07.16.554,0414_05,16,14,2,w,0.2855,0.4439,YL,True,1681463236.5542,none
254,2023-04-14_17h07.19.071,0414_05,16,15,1,p,0.423,none,BL,False,1681463239.0714,none
255,2023-04-14_17h07.21.671,0414_05,16,16,1,p,0.5071,none,BL,False,1681463241.6711,none
256,2023-04-14_17h07.55.204,0414_05,17,1,2,w,0.3093,none,YR,False,1681463275.2043,none
257,2023-04-14_17h07.57.704,0414_05,17,2,1,p,0.3979,none,BR,False,1681463277.7042,none
258,2023-04-14_17h08.00.188,0414_05,17,3,1,p,0.393,none,BR,False,1681463280.1886,none
259,2023-04-14_17h08.02.655,0414_05,17,4,1,p,0.3659,none,BL,False,1681463282.6551,none
260,2023-04-14_17h08.05.188,0414_05,17,5,2,w,0.4436,none,YL,False,1681463285.1886,none
261,2023-04-14_17h08.07.637,0414_05,17,6,1,p,0.3503,none,BL,False,1681463287.638,none
262,2023-04-14_17h08.10.122,0414_05,17,7,1,p,0.3881,none,BL,False,1681463290.1221,none
263,2023-04-14_17h08.12.504,0414_05,17,8,2,w,0.2891,none,YR,False,1681463292.5056,none
264,2023-04-14_17h08.15.004,0414_05,17,9,1,p,0.4096,none,BR,False,1681463295.0049,none
265,2023-04-14_17h08.17.554,0414_05,17,10,2,w,0.4449,none,YL,False,1681463297.5544,none
266,2023-04-14_17h08.19.972,0414_05,17,11,2,w,0.3117,none,YL,False,1681463299.9726,none
267,2023-04-14_17h08.22.388,0414_05,17,12,2,w,0.3191,none,YL,False,1681463302.3884,none
268,2023-04-14_17h08.24.789,0414_05,17,13,1,p,0.3102,none,BR,False,1681463304.7891,none
269,2023-04-14_17h08.27.188,0414_05,17,14,1,p,0.3106,none,BL,False,1681463307.1887,none
270,2023-04-14_17h08.29.672,0414_05,17,15,2,w,0.3901,none,YR,False,1681463309.6723,none
271,2023-04-14_17h08.32.088,0414_05,17,16,2,w,0.3153,none,YR,False,1681463312.0887,none
272,2023-04-14_17h09.04.954,0414_05,18,1,1,p,0.3126,none,BR,False,1681463344.955,none
273,2023-04-14_17h09.07.438,0414_05,18,2,2,w,0.3755,0.3511,YR,True,1681463347.4382,none
274,2023-04-14_17h09.09.788,0414_05,18,3,1,p,0.26,none,BL,False,1681463349.7884,none
275,2023-04-14_17h09.12.171,0414_05,18,4,1,p,0.2784,none,BL,False,1681463352.1713,none
276,2023-04-14_17h09.14.639,0414_05,18,5,2,w,0.2624,0.3425,YR,True,1681463354.6392,none
277,2023-04-14_17h09.17.055,0414_05,18,6,1,p,0.2999,none,BL,False,1681463357.0551,none
278,2023-04-14_17h09.19.521,0414_05,18,7,2,w,0.3467,0.3444,YL,True,1681463359.5218,none
279,2023-04-14_17h09.21.954,0414_05,18,8,1,p,0.3289,none,BR,False,1681463361.9545,none
280,2023-04-14_17h09.24.421,0414_05,18,9,2,w,0.3514,0.358,YL,True,1681463364.421,none
281,2023-04-14_17h09.26.805,0414_05,18,10,1,p,0.2928,none,BR,False,1681463366.8054,none
282,2023-04-14_17h09.29.288,0414_05,18,11,1,p,0.3815,none,BL,False,1681463369.2883,none
283,2023-04-14_17h09.31.837,0414_05,18,12,2,w,0.3378,0.4355,YL,True,1681463371.8375,none
284,2023-04-14_17h09.34.371,0414_05,18,13,2,w,0.2606,0.4266,YR,True,1681463374.3713,none
285,2023-04-14_17h09.36.822,0414_05,18,14,2,w,0.3439,0.3347,YR,True,1681463376.8224,none
286,2023-04-14_17h09.39.538,0414_05,18,15,1,p,0.6203,none,BR,False,1681463379.5385,none
287,2023-04-14_17h09.42.088,0414_05,18,16,2,w,0.3839,0.4332,YL,True,1681463382.0885,none
288,2023-04-14_17h10.15.338,0414_05,19,1,2,w,0.2579,0.3375,YL,True,1681463415.3387,none
289,2023-04-14_17h10.17.820,0414_05,19,2,1,p,0.3923,none,BL,False,1681463417.821,none
290,2023-04-14_17h10.20.355,0414_05,19,3,1,p,0.4365,none,BR,False,1681463420.3553,none
291,2023-04-14_17h10.22.788,0414_05,19,4,2,w,0.2871,0.3284,YR,True,1681463422.7881,none
292,2023-04-14_17h10.25.255,0414_05,19,5,2,w,0.3613,0.3537,YL,True,1681463425.2557,none
293,2023-04-14_17h10.27.837,0414_05,19,6,1,p,0.4913,none,BL,False,1681463427.8377,none
294,2023-04-14_17h10.30.320,0414_05,19,7,1,p,0.38,none,BR,False,1681463430.3219,none
295,2023-04-14_17h10.32.772,0414_05,19,8,1,p,0.3606,none,BR,False,1681463432.7721,none
296,2023-04-14_17h10.35.256,0414_05,19,9,1,p,0.382,none,BL,False,1681463435.2565,none
297,2023-04-14_17h10.37.788,0414_05,19,10,2,w,0.427,0.3259,YR,True,1681463437.7881,none
298,2023-04-14_17h10.40.321,0414_05,19,11,2,w,0.2774,0.4128,YR,True,1681463440.322,none
299,2023-04-14_17h10.42.771,0414_05,19,12,2,w,0.2405,0.3392,YR,True,1681463442.7714,none
300,2023-04-14_17h10.45.270,0414_05,19,13,1,p,0.3989,none,BR,False,1681463445.2709,none
301,2023-04-14_17h10.47.821,0414_05,19,14,1,p,0.4589,none,BL,False,1681463447.8216,none
302,2023-04-14_17h10.50.287,0414_05,19,15,2,w,0.3162,0.3523,YL,True,1681463450.2884,none
303,2023-04-14_17h10.52.738,0414_05,19,16,2,w,0.3296,0.3276,YL,True,1681463452.7382,none
304,2023-04-14_17h11.29.788,0414_05,20,1,1,p,0.3346,none,BL,False,1681463489.7888,none
305,2023-04-14_17h11.32.288,0414_05,20,2,1,p,0.3977,none,BR,False,1681463492.2881,none
306,2023-04-14_17h11.34.788,0414_05,20,3,2,w,0.3825,0.3479,YR,True,1681463494.7882,none
307,2023-04-14_17h11.37.255,0414_05,20,4,1,p,0.373,none,BL,False,1681463497.2553,none
308,2023-04-14_17h11.39.988,0414_05,20,5,1,p,0.6431,none,BR,False,1681463499.9888,none
309,2023-04-14_17h11.42.438,0414_05,20,6,2,w,0.3496,0.2919,YL,True,1681463502.4389,none
310,2023-04-14_17h11.45.171,0414_05,20,7,2,w,0.6148,0.3873,YL,True,1681463505.1719,none
311,2023-04-14_17h11.47.637,0414_05,20,8,2,w,0.3103,0.3672,YR,True,1681463507.6379,none
312,2023-04-14_17h11.50.022,0414_05,20,9,1,p,0.2915,none,BL,False,1681463510.0229,none
313,2023-04-14_17h11.52.456,0414_05,20,10,1,p,0.3317,none,BR,False,1681463512.4562,none
314,2023-04-14_17h11.54.905,0414_05,20,11,2,w,0.2753,0.3432,YR,True,1681463514.9055,none
315,2023-04-14_17h11.57.488,0414_05,20,12,1,p,0.481,none,BR,False,1681463517.4887,none
316,2023-04-14_17h11.59.905,0414_05,20,13,2,w,0.2969,0.2832,YR,True,1681463519.9053,none
317,2023-04-14_17h12.02.338,0414_05,20,14,2,w,0.3049,0.3181,YL,True,1681463522.3385,none
318,2023-04-14_17h12.04.988,0414_05,20,15,1,p,0.5596,none,BL,False,1681463524.9886,none
319,2023-04-14_17h12.07.438,0414_05,20,16,2,w,0.3355,0.2945,YL,True,1681463527.439,none
