,timestamp,experiment_ID,block_ID,stimulus_ID,subject,key_press,rt,fake_human_rt,trial_stim,fake_or_not,UNIX_time,wrong_type
0,2023-04-26_13h38.28.414,0426_3_2,1,1,2,w,0.8863,none,YR,False,1682487508.4146,none
1,2023-04-26_13h38.31.246,0426_3_2,1,2,2,w,0.7423,none,YR,False,1682487511.2467,none
2,2023-04-26_13h38.35.346,0426_3_2,1,3,1,none,none,none,BL,False,1682487515.3466,Not_press
3,2023-04-26_13h38.37.765,0426_3_2,1,4,1,p,0.3128,none,BR,False,1682487517.7652,none
4,2023-04-26_13h38.40.397,0426_3_2,1,5,2,w,0.5196,none,YL,False,1682487520.3977,none
5,2023-04-26_13h38.43.097,0426_3_2,1,6,2,w,0.6066,none,YR,False,1682487523.0974,none
6,2023-04-26_13h38.45.447,0426_3_2,1,7,1,p,0.2587,none,BL,False,1682487525.4473,none
7,2023-04-26_13h38.48.379,0426_3_2,1,8,2,w,0.837,none,YR,False,1682487528.3797,none
8,2023-04-26_13h38.50.930,0426_3_2,1,9,2,w,0.455,none,YL,False,1682487530.9306,none
9,2023-04-26_13h38.53.530,0426_3_2,1,10,1,p,0.4974,none,BL,False,1682487533.5306,none
10,2023-04-26_13h38.56.030,0426_3_2,1,11,2,w,0.4005,none,YL,False,1682487536.0308,none
11,2023-04-26_13h38.58.514,0426_3_2,1,12,1,p,0.3816,none,BL,False,1682487538.5144,none
12,2023-04-26_13h39.00.964,0426_3_2,1,13,1,p,0.3376,none,BR,False,1682487540.9643,none
13,2023-04-26_13h39.03.396,0426_3_2,1,14,1,p,0.3284,none,BR,False,1682487543.3968,none
14,2023-04-26_13h39.05.847,0426_3_2,1,15,1,p,0.3506,none,BR,False,1682487545.8471,none
15,2023-04-26_13h39.08.364,0426_3_2,1,16,2,w,0.4205,none,YL,False,1682487548.3646,none
16,2023-04-26_13h39.43.397,0426_3_2,2,1,2,w,0.6529,none,YL,False,1682487583.3975,none
17,2023-04-26_13h39.45.947,0426_3_2,2,2,2,w,0.4467,none,YL,False,1682487585.9476,none
18,2023-04-26_13h39.48.530,0426_3_2,2,3,1,p,0.4806,none,BL,False,1682487588.5308,none
19,2023-04-26_13h39.50.980,0426_3_2,2,4,1,p,0.3531,none,BL,False,1682487590.9804,none
20,2023-04-26_13h39.53.464,0426_3_2,2,5,2,w,0.3914,none,YL,False,1682487593.4646,none
21,2023-04-26_13h39.55.931,0426_3_2,2,6,1,p,0.364,none,BR,False,1682487595.9319,none
22,2023-04-26_13h39.58.580,0426_3_2,2,7,2,w,0.5533,none,YR,False,1682487598.581,none
23,2023-04-26_13h40.00.897,0426_3_2,2,8,1,p,0.2231,none,BL,False,1682487600.8977,none
24,2023-04-26_13h40.03.547,0426_3_2,2,9,2,w,0.5461,none,YR,False,1682487603.547,none
25,2023-04-26_13h40.06.147,0426_3_2,2,10,2,w,0.4964,none,YL,False,1682487606.1474,none
26,2023-04-26_13h40.08.563,0426_3_2,2,11,1,p,0.3205,none,BL,False,1682487608.564,none
27,2023-04-26_13h40.10.664,0426_3_2,2,12,2,p,0.0017,none,YR,False,1682487610.665,Wrong_press
28,2023-04-26_13h40.13.263,0426_3_2,2,13,2,w,0.4994,none,YR,False,1682487613.2649,none
29,2023-04-26_13h40.15.680,0426_3_2,2,14,1,p,0.3241,none,BR,False,1682487615.6808,none
30,2023-04-26_13h40.18.248,0426_3_2,2,15,1,p,0.4678,none,BR,False,1682487618.2482,none
31,2023-04-26_13h40.20.714,0426_3_2,2,16,1,p,0.373,none,BR,False,1682487620.7148,none
32,2023-04-26_13h40.54.813,0426_3_2,3,1,1,p,0.5176,none,BL,False,1682487654.8135,none
33,2023-04-26_13h40.57.348,0426_3_2,3,2,1,p,0.4295,none,BL,False,1682487657.3487,none
34,2023-04-26_13h41.00.214,0426_3_2,3,3,2,w,0.4879,0.752,YL,True,1682487660.2141,none
35,2023-04-26_13h41.03.080,0426_3_2,3,4,2,w,0.3977,0.752,YR,True,1682487663.0802,none
36,2023-04-26_13h41.05.948,0426_3_2,3,5,2,w,0.3395,0.752,YR,True,1682487665.9483,none
37,2023-04-26_13h41.08.414,0426_3_2,3,6,1,p,0.3515,none,BR,False,1682487668.4146,none
38,2023-04-26_13h41.11.297,0426_3_2,3,7,2,w,0.3651,0.752,YR,True,1682487671.2977,none
39,2023-04-26_13h41.13.747,0426_3_2,3,8,1,p,0.3464,none,BR,False,1682487673.7472,none
40,2023-04-26_13h41.16.614,0426_3_2,3,9,2,w,0.5043,0.752,YL,True,1682487676.6143,none
41,2023-04-26_13h41.19.497,0426_3_2,3,10,2,w,0.4371,0.752,YL,True,1682487679.498,none
42,2023-04-26_13h41.21.897,0426_3_2,3,11,1,p,0.2984,none,BR,False,1682487681.8972,none
43,2023-04-26_13h41.24.363,0426_3_2,3,12,1,p,0.3706,none,BL,False,1682487684.3635,none
44,2023-04-26_13h41.27.231,0426_3_2,3,13,2,w,0.4399,0.752,YL,True,1682487687.2316,none
45,2023-04-26_13h41.29.748,0426_3_2,3,14,1,p,0.4129,none,BR,False,1682487689.7484,none
46,2023-04-26_13h41.32.346,0426_3_2,3,15,1,p,0.4962,none,BL,False,1682487692.3468,none
47,2023-04-26_13h41.35.214,0426_3_2,3,16,2,w,0.5357,0.752,YR,True,1682487695.2141,none
48,2023-04-26_13h42.12.046,0426_3_2,4,1,1,p,0.4744,none,BR,False,1682487732.0468,none
49,2023-04-26_13h42.14.447,0426_3_2,4,2,1,p,0.3004,none,BR,False,1682487734.4473,none
50,2023-04-26_13h42.16.848,0426_3_2,4,3,1,p,0.2997,none,BR,False,1682487736.8482,none
51,2023-04-26_13h42.19.230,0426_3_2,4,4,1,p,0.2919,none,BL,False,1682487739.2309,none
52,2023-04-26_13h42.21.564,0426_3_2,4,5,1,p,0.2372,none,BL,False,1682487741.5643,none
53,2023-04-26_13h42.24.398,0426_3_2,4,6,2,w,0.4554,0.7225,YL,True,1682487744.3981,none
54,2023-04-26_13h42.27.247,0426_3_2,4,7,2,w,0.4303,0.7262,YR,True,1682487747.2475,none
55,2023-04-26_13h42.29.631,0426_3_2,4,8,1,p,0.2923,none,BL,False,1682487749.6312,none
56,2023-04-26_13h42.32.248,0426_3_2,4,9,1,p,0.5249,none,BL,False,1682487752.2483,none
57,2023-04-26_13h42.34.664,0426_3_2,4,10,1,p,0.3165,none,BR,False,1682487754.6647,none
58,2023-04-26_13h42.37.498,0426_3_2,4,11,2,w,0.4198,0.7244,YL,True,1682487757.498,none
59,2023-04-26_13h42.40.331,0426_3_2,4,12,2,w,0.4497,0.722,YR,True,1682487760.3312,none
60,2023-04-26_13h42.43.164,0426_3_2,4,13,2,w,0.3687,0.7222,YL,True,1682487763.1647,none
61,2023-04-26_13h42.45.998,0426_3_2,4,14,2,w,0.408,0.7245,YR,True,1682487765.9982,none
62,2023-04-26_13h42.48.832,0426_3_2,4,15,2,w,0.398,0.7239,YL,True,1682487768.8321,none
63,2023-04-26_13h42.51.681,0426_3_2,4,16,2,w,0.3165,0.7242,YR,True,1682487771.6815,none
64,2023-04-26_13h43.27.664,0426_3_2,5,1,1,p,0.474,none,BL,False,1682487807.6648,none
65,2023-04-26_13h43.30.481,0426_3_2,5,2,2,w,0.4112,0.6903,YL,True,1682487810.4815,none
66,2023-04-26_13h43.32.915,0426_3_2,5,3,1,p,0.3386,none,BR,False,1682487812.9157,none
67,2023-04-26_13h43.35.715,0426_3_2,5,4,2,w,0.3537,0.6899,YR,True,1682487815.7151,none
68,2023-04-26_13h43.38.198,0426_3_2,5,5,1,p,0.3849,none,BR,False,1682487818.1982,none
69,2023-04-26_13h43.40.697,0426_3_2,5,6,1,p,0.4063,none,BR,False,1682487820.6971,none
70,2023-04-26_13h43.43.497,0426_3_2,5,7,2,w,0.474,0.7008,YL,True,1682487823.4979,none
71,2023-04-26_13h43.46.315,0426_3_2,5,8,1,p,0.722,none,BL,False,1682487826.3154,none
72,2023-04-26_13h43.49.131,0426_3_2,5,9,2,w,0.4333,0.6996,YR,True,1682487829.1314,none
73,2023-04-26_13h43.51.564,0426_3_2,5,10,1,p,0.3365,none,BL,False,1682487831.5642,none
74,2023-04-26_13h43.54.015,0426_3_2,5,11,1,p,0.3509,none,BR,False,1682487834.0155,none
75,2023-04-26_13h43.56.814,0426_3_2,5,12,2,w,0.366,0.6899,YL,True,1682487836.8144,none
76,2023-04-26_13h43.59.614,0426_3_2,5,13,2,w,0.4373,0.6917,YR,True,1682487839.6146,none
77,2023-04-26_13h44.02.414,0426_3_2,5,14,2,w,0.3409,0.696,YR,True,1682487842.4149,none
78,2023-04-26_13h44.04.781,0426_3_2,5,15,1,p,0.2692,none,BL,False,1682487844.7818,none
79,2023-04-26_13h44.07.580,0426_3_2,5,16,2,w,0.3986,0.6896,YL,True,1682487847.5808,none
80,2023-04-26_13h44.51.180,0426_3_2,6,1,2,w,0.8368,none,YL,False,1682487891.1809,none
81,2023-04-26_13h44.53.648,0426_3_2,6,2,1,p,0.3663,none,BL,False,1682487893.6484,none
82,2023-04-26_13h44.56.232,0426_3_2,6,3,2,w,0.4839,none,YL,False,1682487896.2329,none
83,2023-04-26_13h44.58.581,0426_3_2,6,4,1,p,0.2444,none,BR,False,1682487898.5816,none
84,2023-04-26_13h45.01.081,0426_3_2,6,5,1,p,0.3982,none,BL,False,1682487901.0816,none
85,2023-04-26_13h45.03.481,0426_3_2,6,6,2,w,0.3068,none,YL,False,1682487903.4818,none
86,2023-04-26_13h45.05.931,0426_3_2,6,7,2,w,0.3466,none,YR,False,1682487905.9314,none
87,2023-04-26_13h45.08.365,0426_3_2,6,8,2,w,0.3285,none,YR,False,1682487908.3652,none
88,2023-04-26_13h45.10.830,0426_3_2,6,9,1,p,0.3755,none,BR,False,1682487910.8305,none
89,2023-04-26_13h45.13.414,0426_3_2,6,10,1,p,0.4926,none,BL,False,1682487913.4145,none
90,2023-04-26_13h45.15.797,0426_3_2,6,11,1,p,0.2931,none,BL,False,1682487915.7978,none
91,2023-04-26_13h45.18.164,0426_3_2,6,12,1,p,0.2774,none,BR,False,1682487918.165,none
92,2023-04-26_13h45.20.548,0426_3_2,6,13,1,p,0.2787,none,BR,False,1682487920.5488,none
93,2023-04-26_13h45.23.097,0426_3_2,6,14,2,w,0.4478,none,YR,False,1682487923.0978,none
94,2023-04-26_13h45.25.565,0426_3_2,6,15,2,w,0.3608,none,YL,False,1682487925.5663,none
95,2023-04-26_13h45.27.999,0426_3_2,6,16,2,w,0.335,none,YR,False,1682487927.9992,none
96,2023-04-26_13h46.03.981,0426_3_2,7,1,2,w,0.3976,0.6589,YR,True,1682487963.981,none
97,2023-04-26_13h46.06.530,0426_3_2,7,2,1,p,0.454,none,BR,False,1682487966.531,none
98,2023-04-26_13h46.09.314,0426_3_2,7,3,2,w,0.6003,0.6613,YR,True,1682487969.3154,none
99,2023-04-26_13h46.12.097,0426_3_2,7,4,2,w,0.5129,0.6641,YL,True,1682487972.0976,none
100,2023-04-26_13h46.14.881,0426_3_2,7,5,2,w,0.338,0.6703,YL,True,1682487974.8818,none
101,2023-04-26_13h46.17.314,0426_3_2,7,6,1,p,0.3381,none,BL,False,1682487977.3146,none
102,2023-04-26_13h46.20.116,0426_3_2,7,7,2,w,0.5449,0.674,YR,True,1682487980.1162,none
103,2023-04-26_13h46.22.898,0426_3_2,7,8,2,w,0.5132,0.6684,YR,True,1682487982.8985,none
104,2023-04-26_13h46.25.531,0426_3_2,7,9,1,p,0.5379,none,BR,False,1682487985.5313,none
105,2023-04-26_13h46.28.281,0426_3_2,7,10,1,p,0.6562,none,BL,False,1682487988.2818,none
106,2023-04-26_13h46.31.064,0426_3_2,7,11,2,w,0.4507,0.6699,YL,True,1682487991.0647,none
107,2023-04-26_13h46.33.716,0426_3_2,7,12,1,p,0.5552,none,BL,False,1682487993.716,none
108,2023-04-26_13h46.36.215,0426_3_2,7,13,1,p,0.4009,none,BR,False,1682487996.2151,none
109,2023-04-26_13h46.38.981,0426_3_2,7,14,2,w,0.5411,0.6632,YL,True,1682487998.9819,none
110,2023-04-26_13h46.41.532,0426_3_2,7,15,1,p,0.4466,none,BL,False,1682488001.5321,none
111,2023-04-26_13h46.43.949,0426_3_2,7,16,1,p,0.3202,none,BR,False,1682488003.9491,none
112,2023-04-26_13h47.19.782,0426_3_2,8,1,1,p,0.2848,none,BR,False,1682488039.7823,none
113,2023-04-26_13h47.22.531,0426_3_2,8,2,2,w,0.3582,0.6493,YL,True,1682488042.5319,none
114,2023-04-26_13h47.25.281,0426_3_2,8,3,2,w,0.392,0.6363,YR,True,1682488045.2811,none
115,2023-04-26_13h47.27.781,0426_3_2,8,4,1,p,0.4101,none,BL,False,1682488047.7817,none
116,2023-04-26_13h47.30.298,0426_3_2,8,5,1,p,0.4138,none,BR,False,1682488050.2984,none
117,2023-04-26_13h47.33.032,0426_3_2,8,6,2,w,0.4731,0.6281,YR,True,1682488053.0325,none
118,2023-04-26_13h47.35.781,0426_3_2,8,7,2,w,0.3164,0.6333,YL,True,1682488055.7817,none
119,2023-04-26_13h47.38.181,0426_3_2,8,8,1,p,0.3017,none,BL,False,1682488058.1811,none
120,2023-04-26_13h47.40.531,0426_3_2,8,9,1,p,0.2541,none,BR,False,1682488060.532,none
121,2023-04-26_13h47.42.965,0426_3_2,8,10,1,p,0.3433,none,BL,False,1682488062.9655,none
122,2023-04-26_13h47.45.365,0426_3_2,8,11,1,p,0.3105,none,BL,False,1682488065.365,none
123,2023-04-26_13h47.48.182,0426_3_2,8,12,2,w,0.7013,0.6407,YL,True,1682488068.1821,none
124,2023-04-26_13h47.50.948,0426_3_2,8,13,2,w,0.3501,0.6493,YR,True,1682488070.9488,none
125,2023-04-26_13h47.53.697,0426_3_2,8,14,2,w,0.3432,0.6497,YL,True,1682488073.698,none
126,2023-04-26_13h47.56.098,0426_3_2,8,15,1,p,0.3056,none,BR,False,1682488076.0981,none
127,2023-04-26_13h47.58.865,0426_3_2,8,16,2,w,0.4256,0.6456,YR,True,1682488078.8652,none
128,2023-04-26_13h48.37.215,0426_3_2,9,1,2,w,0.3529,0.5995,YR,True,1682488117.2157,none
129,2023-04-26_13h48.39.581,0426_3_2,9,2,1,p,0.2771,none,BL,False,1682488119.5819,none
130,2023-04-26_13h48.41.965,0426_3_2,9,3,1,p,0.2863,none,BR,False,1682488121.9658,none
131,2023-04-26_13h48.44.698,0426_3_2,9,4,2,w,0.4147,0.6184,YR,True,1682488124.699,none
132,2023-04-26_13h48.47.415,0426_3_2,9,5,2,w,0.3455,0.6029,YR,True,1682488127.4157,none
133,2023-04-26_13h48.49.799,0426_3_2,9,6,1,p,0.2835,none,BR,False,1682488129.7991,none
134,2023-04-26_13h48.52.366,0426_3_2,9,7,1,p,0.469,none,BL,False,1682488132.3664,none
135,2023-04-26_13h48.54.814,0426_3_2,9,8,1,p,0.343,none,BL,False,1682488134.8148,none
136,2023-04-26_13h48.57.548,0426_3_2,9,9,2,w,0.4524,0.6193,YL,True,1682488137.5484,none
137,2023-04-26_13h49.00.282,0426_3_2,9,10,2,w,0.327,0.6239,YR,True,1682488140.2821,none
138,2023-04-26_13h49.02.964,0426_3_2,9,11,1,p,0.569,none,BR,False,1682488142.9647,none
139,2023-04-26_13h49.05.698,0426_3_2,9,12,2,w,0.4301,0.6138,YL,True,1682488145.699,none
140,2023-04-26_13h49.08.432,0426_3_2,9,13,2,w,0.4732,0.6181,YL,True,1682488148.4324,none
141,2023-04-26_13h49.11.165,0426_3_2,9,14,2,w,0.4276,0.6135,YL,True,1682488151.1652,none
142,2023-04-26_13h49.13.848,0426_3_2,9,15,1,p,0.5907,none,BR,False,1682488153.8486,none
143,2023-04-26_13h49.16.365,0426_3_2,9,16,1,p,0.4194,none,BL,False,1682488156.3656,none
144,2023-04-26_13h49.52.998,0426_3_2,10,1,2,w,0.44,0.5962,YL,True,1682488192.9988,none
145,2023-04-26_13h49.55.448,0426_3_2,10,2,1,p,0.3563,none,BL,False,1682488195.4486,none
146,2023-04-26_13h49.57.899,0426_3_2,10,3,1,p,0.3464,none,BL,False,1682488197.8992,none
147,2023-04-26_13h50.00.599,0426_3_2,10,4,2,w,0.3047,0.5919,YR,True,1682488200.5993,none
148,2023-04-26_13h50.02.997,0426_3_2,10,5,1,p,0.3089,none,BL,False,1682488202.9988,none
149,2023-04-26_13h50.05.699,0426_3_2,10,6,2,w,0.4531,0.5849,YL,True,1682488205.6993,none
150,2023-04-26_13h50.08.382,0426_3_2,10,7,2,w,0.353,0.567,YL,True,1682488208.3826,none
151,2023-04-26_13h50.10.948,0426_3_2,10,8,1,p,0.4693,none,BL,False,1682488210.9489,none
152,2023-04-26_13h50.13.448,0426_3_2,10,9,1,p,0.4066,none,BR,False,1682488213.45,none
153,2023-04-26_13h50.16.132,0426_3_2,10,10,2,w,0.395,0.5637,YR,True,1682488216.1322,none
154,2023-04-26_13h50.18.916,0426_3_2,10,11,2,w,0.6728,0.5852,YR,True,1682488218.9168,none
155,2023-04-26_13h50.21.615,0426_3_2,10,12,2,w,0.3193,0.568,YL,True,1682488221.6159,none
156,2023-04-26_13h50.24.015,0426_3_2,10,13,1,p,0.3015,none,BR,False,1682488224.0152,none
157,2023-04-26_13h50.26.731,0426_3_2,10,14,2,w,0.4284,0.5967,YR,True,1682488226.7319,none
158,2023-04-26_13h50.29.399,0426_3_2,10,15,1,p,0.5749,none,BR,False,1682488229.3999,none
159,2023-04-26_13h50.32.563,0426_3_2,10,16,1,p,1.0683,none,BR,False,1682488232.5645,none
160,2023-04-26_13h51.15.332,0426_3_2,11,1,1,p,0.3287,none,BL,False,1682488275.332,none
161,2023-04-26_13h51.17.700,0426_3_2,11,2,1,p,0.2716,none,BL,False,1682488277.7004,none
162,2023-04-26_13h51.20.349,0426_3_2,11,3,2,w,0.3597,0.537,YR,True,1682488280.3492,none
163,2023-04-26_13h51.22.748,0426_3_2,11,4,1,p,0.3027,none,BR,False,1682488282.7487,none
164,2023-04-26_13h51.25.148,0426_3_2,11,5,1,p,0.2946,none,BR,False,1682488285.15,none
165,2023-04-26_13h51.27.798,0426_3_2,11,6,2,w,0.3584,0.5408,YR,True,1682488287.799,none
166,2023-04-26_13h51.30.465,0426_3_2,11,7,2,w,0.3802,0.5481,YR,True,1682488290.4659,none
167,2023-04-26_13h51.32.865,0426_3_2,11,8,1,p,0.3072,none,BL,False,1682488292.8651,none
168,2023-04-26_13h51.35.532,0426_3_2,11,9,2,w,0.3381,0.5554,YL,True,1682488295.5325,none
169,2023-04-26_13h51.38.033,0426_3_2,11,10,1,p,0.3992,none,BR,False,1682488298.0335,none
170,2023-04-26_13h51.40.682,0426_3_2,11,11,2,w,0.3477,0.5319,YL,True,1682488300.6824,none
171,2023-04-26_13h51.43.031,0426_3_2,11,12,1,p,0.2491,none,BR,False,1682488303.032,none
172,2023-04-26_13h51.45.698,0426_3_2,11,13,2,w,0.3796,0.5525,YR,True,1682488305.699,none
173,2023-04-26_13h51.47.999,0426_3_2,11,14,1,p,0.2009,none,BL,False,1682488307.9994,none
174,2023-04-26_13h51.50.683,0426_3_2,11,15,2,w,0.4369,0.57,YL,True,1682488310.6833,none
175,2023-04-26_13h51.53.316,0426_3_2,11,16,2,w,0.3772,0.5365,YL,True,1682488313.3168,none
176,2023-04-26_13h52.30.999,0426_3_2,12,1,1,p,0.3425,none,BL,False,1682488350.9995,none
177,2023-04-26_13h52.33.632,0426_3_2,12,2,2,w,0.3324,0.5183,YR,True,1682488353.6322,none
178,2023-04-26_13h52.36.015,0426_3_2,12,3,1,p,0.2912,none,BR,False,1682488356.0159,none
179,2023-04-26_13h52.38.632,0426_3_2,12,4,2,w,0.3794,0.5064,YL,True,1682488358.6329,none
180,2023-04-26_13h52.41.150,0426_3_2,12,5,1,p,0.4273,none,BR,False,1682488361.15,none
181,2023-04-26_13h52.43.549,0426_3_2,12,6,1,p,0.2947,none,BL,False,1682488363.5499,none
182,2023-04-26_13h52.46.166,0426_3_2,12,7,2,w,0.4706,0.5023,YL,True,1682488366.166,none
183,2023-04-26_13h52.48.800,0426_3_2,12,8,2,w,0.4374,0.5156,YR,True,1682488368.8,none
184,2023-04-26_13h52.51.216,0426_3_2,12,9,1,p,0.3168,none,BR,False,1682488371.2169,none
185,2023-04-26_13h52.53.849,0426_3_2,12,10,2,w,0.4442,0.5142,YL,True,1682488373.8494,none
186,2023-04-26_13h52.56.483,0426_3_2,12,11,2,w,0.3945,0.5197,YL,True,1682488376.4838,none
187,2023-04-26_13h52.58.866,0426_3_2,12,12,1,p,0.2892,none,BL,False,1682488378.8667,none
188,2023-04-26_13h53.01.266,0426_3_2,12,13,1,p,0.2978,none,BR,False,1682488381.2663,none
189,2023-04-26_13h53.03.899,0426_3_2,12,14,2,w,0.4172,0.5166,YR,True,1682488383.8993,none
190,2023-04-26_13h53.06.399,0426_3_2,12,15,1,p,0.4007,none,BL,False,1682488386.3996,none
191,2023-04-26_13h53.09.015,0426_3_2,12,16,2,w,0.3725,0.5095,YR,True,1682488389.0155,none
192,2023-04-26_13h53.45.182,0426_3_2,13,1,1,p,0.3592,none,BR,False,1682488425.183,none
193,2023-04-26_13h53.47.583,0426_3_2,13,2,1,p,0.3091,none,BR,False,1682488427.5834,none
194,2023-04-26_13h53.50.182,0426_3_2,13,3,2,w,0.4289,0.4731,YR,True,1682488430.1836,none
195,2023-04-26_13h53.52.799,0426_3_2,13,4,2,w,0.316,0.4972,YL,True,1682488432.7996,none
196,2023-04-26_13h53.55.400,0426_3_2,13,5,2,w,0.4849,0.4826,YL,True,1682488435.4007,none
197,2023-04-26_13h53.57.999,0426_3_2,13,6,2,w,0.3563,0.4988,YR,True,1682488437.9994,none
198,2023-04-26_13h54.00.365,0426_3_2,13,7,1,p,0.2682,none,BR,False,1682488440.3656,none
199,2023-04-26_13h54.03.016,0426_3_2,13,8,2,w,0.4974,0.4813,YR,True,1682488443.0161,none
200,2023-04-26_13h54.05.416,0426_3_2,13,9,1,p,0.2999,none,BL,False,1682488445.4175,none
201,2023-04-26_13h54.08.049,0426_3_2,13,10,2,w,0.4114,0.5186,YR,True,1682488448.0492,none
202,2023-04-26_13h54.10.449,0426_3_2,13,11,1,p,0.2984,none,BR,False,1682488450.4495,none
203,2023-04-26_13h54.12.900,0426_3_2,13,12,1,p,0.3464,none,BL,False,1682488452.9003,none
204,2023-04-26_13h54.15.300,0426_3_2,13,13,1,p,0.2962,none,BL,False,1682488455.3001,none
205,2023-04-26_13h54.17.684,0426_3_2,13,14,1,p,0.2799,none,BL,False,1682488457.6842,none
206,2023-04-26_13h54.20.266,0426_3_2,13,15,2,w,0.4329,0.4766,YL,True,1682488460.2663,none
207,2023-04-26_13h54.22.867,0426_3_2,13,16,2,w,0.3935,0.4947,YL,True,1682488462.8671,none
208,2023-04-26_13h54.58.982,0426_3_2,14,1,1,p,0.3583,none,BL,False,1682488498.9828,none
209,2023-04-26_13h55.01.483,0426_3_2,14,2,2,w,0.3972,none,YR,False,1682488501.4835,none
210,2023-04-26_13h55.03.983,0426_3_2,14,3,2,w,0.4002,none,YL,False,1682488503.9834,none
211,2023-04-26_13h55.06.384,0426_3_2,14,4,1,p,0.3085,none,BL,False,1682488506.3841,none
212,2023-04-26_13h55.08.833,0426_3_2,14,5,1,p,0.3484,none,BR,False,1682488508.8338,none
213,2023-04-26_13h55.11.383,0426_3_2,14,6,2,w,0.4506,none,YL,False,1682488511.3834,none
214,2023-04-26_13h55.13.799,0426_3_2,14,7,1,p,0.3248,none,BR,False,1682488513.7998,none
215,2023-04-26_13h55.16.300,0426_3_2,14,8,1,p,0.4044,none,BL,False,1682488516.3005,none
216,2023-04-26_13h55.18.700,0426_3_2,14,9,2,w,0.3033,none,YL,False,1682488518.7005,none
217,2023-04-26_13h55.21.199,0426_3_2,14,10,1,p,0.3999,none,BL,False,1682488521.1998,none
218,2023-04-26_13h55.23.583,0426_3_2,14,11,2,w,0.2913,none,YR,False,1682488523.5838,none
219,2023-04-26_13h55.26.083,0426_3_2,14,12,1,p,0.4043,none,BR,False,1682488526.0835,none
220,2023-04-26_13h55.28.633,0426_3_2,14,13,2,w,0.4487,none,YR,False,1682488528.6333,none
221,2023-04-26_13h55.31.050,0426_3_2,14,14,2,p,0.3227,none,YR,False,1682488531.0507,Wrong_press
222,2023-04-26_13h55.33.516,0426_3_2,14,15,1,p,0.37,none,BR,False,1682488533.516,none
223,2023-04-26_13h55.36.016,0426_3_2,14,16,2,w,0.406,none,YL,False,1682488536.0168,none
224,2023-04-26_13h56.11.316,0426_3_2,15,1,1,p,0.2784,none,BL,False,1682488571.3167,none
225,2023-04-26_13h56.13.932,0426_3_2,15,2,2,w,0.5128,0.4519,YR,True,1682488573.9327,none
226,2023-04-26_13h56.16.332,0426_3_2,15,3,1,p,0.2947,none,BR,False,1682488576.3326,none
227,2023-04-26_13h56.18.882,0426_3_2,15,4,2,w,0.3106,0.4453,YL,True,1682488578.8825,none
228,2023-04-26_13h56.21.516,0426_3_2,15,5,2,w,0.5144,0.4783,YR,True,1682488581.5164,none
229,2023-04-26_13h56.23.934,0426_3_2,15,6,1,p,0.3111,none,BR,False,1682488583.9346,none
230,2023-04-26_13h56.26.416,0426_3_2,15,7,1,p,0.3823,none,BR,False,1682488586.4168,none
231,2023-04-26_13h56.28.967,0426_3_2,15,8,1,p,0.4512,none,BL,False,1682488588.967,none
232,2023-04-26_13h56.31.366,0426_3_2,15,9,1,p,0.3095,none,BL,False,1682488591.3666,none
233,2023-04-26_13h56.33.951,0426_3_2,15,10,1,p,0.4932,none,BR,False,1682488593.9511,none
234,2023-04-26_13h56.36.549,0426_3_2,15,11,2,w,0.3736,0.4934,YL,True,1682488596.5498,none
235,2023-04-26_13h56.39.133,0426_3_2,15,12,2,w,0.3901,0.4718,YR,True,1682488599.1335,none
236,2023-04-26_13h56.41.733,0426_3_2,15,13,2,w,0.4847,0.4569,YR,True,1682488601.7333,none
237,2023-04-26_13h56.44.183,0426_3_2,15,14,1,p,0.3585,none,BL,False,1682488604.1835,none
238,2023-04-26_13h56.46.750,0426_3_2,15,15,2,w,0.3889,0.4537,YL,True,1682488606.7501,none
239,2023-04-26_13h56.49.333,0426_3_2,15,16,2,w,0.4657,0.4467,YL,True,1682488609.3338,none
240,2023-04-26_13h57.25.266,0426_3_2,16,1,1,p,0.3879,none,BR,False,1682488645.2669,none
241,2023-04-26_13h57.27.966,0426_3_2,16,2,2,w,0.5982,0.4558,YR,True,1682488647.9663,none
242,2023-04-26_13h57.30.383,0426_3_2,16,3,1,p,0.3245,none,BL,False,1682488650.3833,none
243,2023-04-26_13h57.32.900,0426_3_2,16,4,2,w,0.3562,0.4106,YR,True,1682488652.9004,none
244,2023-04-26_13h57.35.483,0426_3_2,16,5,2,w,0.3998,0.4641,YL,True,1682488655.4832,none
245,2023-04-26_13h57.38.049,0426_3_2,16,6,2,w,0.4002,0.4602,YL,True,1682488658.0497,none
246,2023-04-26_13h57.40.499,0426_3_2,16,7,1,p,0.3449,none,BL,False,1682488660.4998,none
247,2023-04-26_13h57.42.916,0426_3_2,16,8,1,p,0.3269,none,BL,False,1682488662.9166,none
248,2023-04-26_13h57.45.334,0426_3_2,16,9,1,p,0.3271,none,BR,False,1682488665.3342,none
249,2023-04-26_13h57.47.734,0426_3_2,16,10,1,p,0.2943,none,BR,False,1682488667.7345,none
250,2023-04-26_13h57.50.300,0426_3_2,16,11,2,w,0.4489,0.4199,YL,True,1682488670.301,none
251,2023-04-26_13h57.52.717,0426_3_2,16,12,1,p,0.3196,none,BL,False,1682488672.7173,none
252,2023-04-26_13h57.55.282,0426_3_2,16,13,2,w,0.4526,0.4149,YL,True,1682488675.2827,none
253,2023-04-26_13h57.57.799,0426_3_2,16,14,2,w,0.3763,0.4145,YR,True,1682488677.7997,none
254,2023-04-26_13h58.00.217,0426_3_2,16,15,1,p,0.3157,none,BR,False,1682488680.2173,none
255,2023-04-26_13h58.02.800,0426_3_2,16,16,2,w,0.4811,0.4074,YR,True,1682488682.8002,none
256,2023-04-26_13h58.37.433,0426_3_2,17,1,1,p,0.3562,none,BL,False,1682488717.433,none
257,2023-04-26_13h58.39.833,0426_3_2,17,2,1,p,0.2987,none,BR,False,1682488719.8339,none
258,2023-04-26_13h58.42.350,0426_3_2,17,3,2,w,0.394,0.4149,YR,True,1682488722.3504,none
259,2023-04-26_13h58.44.733,0426_3_2,17,4,1,p,0.2852,none,BR,False,1682488724.7336,none
260,2023-04-26_13h58.47.233,0426_3_2,17,5,2,w,0.3663,0.3854,YR,True,1682488727.2333,none
261,2023-04-26_13h58.49.783,0426_3_2,17,6,2,w,0.3699,0.4364,YL,True,1682488729.7838,none
262,2023-04-26_13h58.52.151,0426_3_2,17,7,1,p,0.2762,none,BR,False,1682488732.1517,none
263,2023-04-26_13h58.54.933,0426_3_2,17,8,2,w,0.6703,0.4103,YL,True,1682488734.9337,none
264,2023-04-26_13h58.57.267,0426_3_2,17,9,1,p,0.2379,none,BR,False,1682488737.2677,none
265,2023-04-26_13h58.59.783,0426_3_2,17,10,2,w,0.3444,0.3926,YR,True,1682488739.7837,none
266,2023-04-26_13h59.02.216,0426_3_2,17,11,1,p,0.3406,none,BL,False,1682488742.2168,none
267,2023-04-26_13h59.04.750,0426_3_2,17,12,2,w,0.331,0.4166,YL,True,1682488744.7507,none
268,2023-04-26_13h59.07.299,0426_3_2,17,13,2,w,0.4256,0.3973,YL,True,1682488747.2997,none
269,2023-04-26_13h59.09.817,0426_3_2,17,14,2,w,0.4056,0.4038,YR,True,1682488749.8171,none
270,2023-04-26_13h59.12.250,0426_3_2,17,15,1,p,0.3304,none,BL,False,1682488752.2503,none
271,2023-04-26_13h59.14.734,0426_3_2,17,16,1,p,0.3852,none,BL,False,1682488754.7344,none
272,2023-04-26_13h59.48.600,0426_3_2,18,1,1,p,0.3412,none,BR,False,1682488788.6006,none
273,2023-04-26_13h59.51.200,0426_3_2,18,2,2,w,0.5008,0.4105,YR,True,1682488791.2003,none
274,2023-04-26_13h59.53.717,0426_3_2,18,3,2,w,0.4075,0.3805,YR,True,1682488793.717,none
275,2023-04-26_13h59.56.283,0426_3_2,18,4,2,w,0.4447,0.3823,YL,True,1682488796.284,none
276,2023-04-26_13h59.58.733,0426_3_2,18,5,1,p,0.3512,none,BR,False,1682488798.7338,none
277,2023-04-26_14h00.01.217,0426_3_2,18,6,1,p,0.3891,none,BL,False,1682488801.2172,none
278,2023-04-26_14h00.03.750,0426_3_2,18,7,2,w,0.424,0.3817,YR,True,1682488803.7506,none
279,2023-04-26_14h00.06.283,0426_3_2,18,8,1,p,0.4368,none,BL,False,1682488806.2839,none
280,2023-04-26_14h00.10.067,0426_3_2,18,9,2,w,1.6706,0.3664,YL,True,1682488810.0672,none
281,2023-04-26_14h00.12.533,0426_3_2,18,10,1,p,0.3767,none,BL,False,1682488812.5335,none
282,2023-04-26_14h00.15.068,0426_3_2,18,11,1,p,0.4376,none,BR,False,1682488815.0685,none
283,2023-04-26_14h00.17.535,0426_3_2,18,12,2,w,0.3478,0.3463,YR,True,1682488817.535,none
284,2023-04-26_14h00.20.034,0426_3_2,18,13,1,p,0.39,none,BL,False,1682488820.034,none
285,2023-04-26_14h00.22.383,0426_3_2,18,14,1,p,0.2579,none,BR,False,1682488822.3838,none
286,2023-04-26_14h00.24.884,0426_3_2,18,15,2,w,0.3317,0.382,YL,True,1682488824.8841,none
287,2023-04-26_14h00.27.368,0426_3_2,18,16,2,w,0.3715,0.3694,YL,True,1682488827.3683,none
288,2023-04-26_14h01.02.383,0426_3_2,19,1,2,w,0.4162,none,YL,False,1682488862.3835,none
289,2023-04-26_14h01.04.801,0426_3_2,19,2,2,w,0.3148,none,YL,False,1682488864.801,none
290,2023-04-26_14h01.07.251,0426_3_2,19,3,2,w,0.3551,none,YL,False,1682488867.2514,none
291,2023-04-26_14h01.09.701,0426_3_2,19,4,2,w,0.353,none,YR,False,1682488869.7017,none
292,2023-04-26_14h01.12.183,0426_3_2,19,5,1,p,0.3826,none,BL,False,1682488872.1836,none
293,2023-04-26_14h01.14.584,0426_3_2,19,6,2,w,0.2998,none,YR,False,1682488874.5848,none
294,2023-04-26_14h01.17.051,0426_3_2,19,7,2,w,0.3717,none,YL,False,1682488877.0516,none
295,2023-04-26_14h01.19.650,0426_3_2,19,8,1,p,0.4973,none,BL,False,1682488879.6507,none
296,2023-04-26_14h01.22.134,0426_3_2,19,9,2,w,0.3926,none,YR,False,1682488882.1342,none
297,2023-04-26_14h01.24.634,0426_3_2,19,10,1,p,0.3973,none,BR,False,1682488884.6341,none
298,2023-04-26_14h01.27.134,0426_3_2,19,11,1,p,0.4101,none,BL,False,1682488887.1341,none
299,2023-04-26_14h01.29.484,0426_3_2,19,12,1,p,0.2539,none,BR,False,1682488889.4842,none
300,2023-04-26_14h01.31.883,0426_3_2,19,13,1,p,0.3036,none,BR,False,1682488891.8836,none
301,2023-04-26_14h01.34.251,0426_3_2,19,14,1,p,0.2636,none,BL,False,1682488894.2514,none
302,2023-04-26_14h01.36.600,0426_3_2,19,15,1,p,0.2575,none,BR,False,1682488896.6008,none
303,2023-04-26_14h01.39.183,0426_3_2,19,16,2,w,0.4908,none,YR,False,1682488899.1831,none
304,2023-04-26_14h02.13.417,0426_3_2,20,1,2,w,0.4383,0.3653,YR,True,1682488933.4175,none
305,2023-04-26_14h02.15.934,0426_3_2,20,2,2,w,0.3993,0.3146,YL,True,1682488935.9349,none
306,2023-04-26_14h02.18.483,0426_3_2,20,3,1,p,0.4452,none,BR,False,1682488938.484,none
307,2023-04-26_14h02.21.101,0426_3_2,20,4,2,w,0.4986,0.362,YL,True,1682488941.1013,none
308,2023-04-26_14h02.23.600,0426_3_2,20,5,1,p,0.399,none,BR,False,1682488943.6009,none
309,2023-04-26_14h02.26.133,0426_3_2,20,6,1,p,0.4346,none,BR,False,1682488946.1338,none
310,2023-04-26_14h02.28.634,0426_3_2,20,7,2,w,0.3984,0.3764,YR,True,1682488948.6347,none
311,2023-04-26_14h02.31.067,0426_3_2,20,8,1,p,0.3296,none,BL,False,1682488951.0675,none
312,2023-04-26_14h02.33.634,0426_3_2,20,9,2,w,0.4428,0.3289,YL,True,1682488953.634,none
313,2023-04-26_14h02.36.199,0426_3_2,20,10,2,w,0.458,0.3511,YL,True,1682488956.1999,none
314,2023-04-26_14h02.38.701,0426_3_2,20,11,2,w,0.3709,0.3914,YR,True,1682488958.7018,none
315,2023-04-26_14h02.41.117,0426_3_2,20,12,1,p,0.327,none,BL,False,1682488961.1178,none
316,2023-04-26_14h02.43.517,0426_3_2,20,13,1,p,0.31,none,BL,False,1682488963.5178,none
317,2023-04-26_14h02.46.000,0426_3_2,20,14,1,p,0.382,none,BR,False,1682488966.0,none
318,2023-04-26_14h02.48.450,0426_3_2,20,15,1,p,0.3471,none,BL,False,1682488968.4503,none
319,2023-04-26_14h02.51.001,0426_3_2,20,16,2,w,0.4261,0.3108,YR,True,1682488971.0018,none
