,timestamp,experiment_ID,block_ID,stimulus_ID,subject,key_press,rt,fake_human_rt,trial_stim,fake_or_not,UNIX_time,wrong_type
0,2023-04-06_10h09.24.646,040601,1,1,2,w,0.2927,none,YR,False,1680746964.6464,none
1,2023-04-06_10h09.27.128,040601,1,2,2,w,0.3648,none,YR,False,1680746967.1286,none
2,2023-04-06_10h09.29.678,040601,1,3,2,w,0.4583,none,YR,False,1680746969.6784,none
3,2023-04-06_10h09.33.778,040601,1,4,1,none,none,none,BL,False,1680746973.7788,Not_press
4,2023-04-06_10h09.37.879,040601,1,5,1,none,none,none,BR,False,1680746977.8792,Not_press
5,2023-04-06_10h09.40.395,040601,1,6,2,w,0.4118,none,YL,False,1680746980.3959,none
6,2023-04-06_10h09.44.496,040601,1,7,1,none,none,none,BL,False,1680746984.4961,Not_press
7,2023-04-06_10h09.46.929,040601,1,8,1,p,0.3314,none,BR,False,1680746986.9292,none
8,2023-04-06_10h09.49.311,040601,1,9,2,w,0.2822,none,YL,False,1680746989.3119,none
9,2023-04-06_10h09.51.645,040601,1,10,1,p,0.2351,none,BR,False,1680746991.6451,none
10,2023-04-06_10h09.54.195,040601,1,11,2,w,0.4458,none,YR,False,1680746994.1956,none
11,2023-04-06_10h09.57.079,040601,1,12,1,p,0.7825,none,BL,False,1680746997.0791,none
12,2023-04-06_10h09.59.579,040601,1,13,1,p,0.4041,none,BL,False,1680746999.5792,none
13,2023-04-06_10h10.01.961,040601,1,14,1,p,0.2889,none,BR,False,1680747001.9618,none
14,2023-04-06_10h10.04.430,040601,1,15,2,w,0.3685,none,YL,False,1680747004.4301,none
15,2023-04-06_10h10.06.928,040601,1,16,2,w,0.3976,none,YL,False,1680747006.9286,none
16,2023-04-06_10h10.40.180,040601,2,1,1,p,0.2705,none,BL,False,1680747040.1802,none
17,2023-04-06_10h10.42.612,040601,2,2,2,w,0.336,none,YL,False,1680747042.6127,none
18,2023-04-06_10h10.45.061,040601,2,3,2,w,0.3589,none,YL,False,1680747045.0619,none
19,2023-04-06_10h10.47.729,040601,2,4,1,p,0.5637,none,BR,False,1680747047.7296,none
20,2023-04-06_10h10.50.146,040601,2,5,1,p,0.3137,none,BR,False,1680747050.1469,none
21,2023-04-06_10h10.52.513,040601,2,6,1,p,0.2652,none,BL,False,1680747052.513,none
22,2023-04-06_10h10.54.946,040601,2,7,2,w,0.3384,none,YR,False,1680747054.9466,none
23,2023-04-06_10h10.57.346,040601,2,8,1,p,0.2973,none,BL,False,1680747057.3461,none
24,2023-04-06_10h10.59.779,040601,2,9,1,p,0.3294,none,BL,False,1680747059.7799,none
25,2023-04-06_10h11.02.180,040601,2,10,2,w,0.2958,none,YL,False,1680747062.1806,none
26,2023-04-06_10h11.04.679,040601,2,11,2,w,0.4068,none,YR,False,1680747064.6793,none
27,2023-04-06_10h11.07.129,040601,2,12,2,w,0.3474,none,YR,False,1680747067.1295,none
28,2023-04-06_10h11.09.546,040601,2,13,2,w,0.3215,none,YL,False,1680747069.5462,none
29,2023-04-06_10h11.12.079,040601,2,14,1,p,0.441,none,BR,False,1680747072.0796,none
30,2023-04-06_10h11.14.546,040601,2,15,1,p,0.3633,none,BR,False,1680747074.5465,none
31,2023-04-06_10h11.16.995,040601,2,16,2,w,0.3529,none,YR,False,1680747076.9967,none
32,2023-04-06_10h11.55.130,040601,3,1,2,w,0.42,0.7588,YR,True,1680747115.1305,none
33,2023-04-06_10h11.57.996,040601,3,2,2,w,0.4493,0.7588,YL,True,1680747117.9961,none
34,2023-04-06_10h12.00.878,040601,3,3,2,w,0.295,0.7588,YL,True,1680747120.879,none
35,2023-04-06_10h12.03.329,040601,3,4,1,p,0.3555,none,BL,False,1680747123.3297,none
36,2023-04-06_10h12.05.797,040601,3,5,1,p,0.3696,none,BR,False,1680747125.7971,none
37,2023-04-06_10h12.08.214,040601,3,6,1,p,0.311,none,BR,False,1680747128.2143,none
38,2023-04-06_10h12.11.096,040601,3,7,2,w,0.3902,0.7588,YR,True,1680747131.0966,none
39,2023-04-06_10h12.13.496,040601,3,8,1,p,0.2984,none,BR,False,1680747133.4967,none
40,2023-04-06_10h12.16.379,040601,3,9,2,w,0.3467,0.7588,YL,True,1680747136.3799,none
41,2023-04-06_10h12.19.246,040601,3,10,2,w,0.391,0.7588,YR,True,1680747139.2461,none
42,2023-04-06_10h12.21.696,040601,3,11,1,p,0.3566,none,BL,False,1680747141.697,none
43,2023-04-06_10h12.24.246,040601,3,12,1,p,0.4336,none,BL,False,1680747144.2465,none
44,2023-04-06_10h12.26.696,040601,3,13,1,p,0.3396,none,BL,False,1680747146.6961,none
45,2023-04-06_10h12.29.563,040601,3,14,2,w,0.4585,0.7588,YR,True,1680747149.5639,none
46,2023-04-06_10h12.31.996,040601,3,15,1,p,0.3111,none,BR,False,1680747151.9968,none
47,2023-04-06_10h12.34.879,040601,3,16,2,w,0.4303,0.7588,YL,True,1680747154.8797,none
48,2023-04-06_10h13.12.864,040601,4,1,1,p,0.3162,none,BR,False,1680747192.8647,none
49,2023-04-06_10h13.15.229,040601,4,2,1,p,0.2757,none,BL,False,1680747195.2294,none
50,2023-04-06_10h13.17.580,040601,4,3,1,p,0.2535,none,BR,False,1680747197.5801,none
51,2023-04-06_10h13.20.430,040601,4,4,2,w,0.4146,0.734,YR,True,1680747200.4303,none
52,2023-04-06_10h13.23.013,040601,4,5,1,p,0.4843,none,BL,False,1680747203.0133,none
53,2023-04-06_10h13.25.513,040601,4,6,1,p,0.3976,none,BL,False,1680747205.5131,none
54,2023-04-06_10h13.28.364,040601,4,7,2,w,0.3214,0.7338,YR,True,1680747208.3641,none
55,2023-04-06_10h13.31.213,040601,4,8,2,w,0.2797,0.7298,YL,True,1680747211.2138,none
56,2023-04-06_10h13.33.630,040601,4,9,1,p,0.3256,none,BR,False,1680747213.6306,none
57,2023-04-06_10h13.36.462,040601,4,10,2,w,0.3086,0.7324,YL,True,1680747216.4628,none
58,2023-04-06_10h13.38.963,040601,4,11,1,p,0.4036,none,BL,False,1680747218.9636,none
59,2023-04-06_10h13.41.813,040601,4,12,2,w,0.2954,0.7335,YR,True,1680747221.8136,none
60,2023-04-06_10h13.44.230,040601,4,13,1,p,0.3176,none,BR,False,1680747224.2305,none
61,2023-04-06_10h13.47.080,040601,4,14,2,w,0.4211,0.7341,YL,True,1680747227.0802,none
62,2023-04-06_10h13.49.913,040601,4,15,2,w,0.3233,0.7308,YL,True,1680747229.9137,none
63,2023-04-06_10h13.52.763,040601,4,16,2,w,0.2818,0.7318,YR,True,1680747232.7637,none
64,2023-04-06_10h14.47.080,040601,5,1,1,p,0.2651,none,BR,False,1680747287.0803,none
65,2023-04-06_10h14.49.880,040601,5,2,2,w,0.3541,0.6969,YR,True,1680747289.8802,none
66,2023-04-06_10h14.52.680,040601,5,3,2,w,0.5223,0.6951,YL,True,1680747292.6802,none
67,2023-04-06_10h14.55.114,040601,5,4,1,p,0.3304,none,BR,False,1680747295.114,none
68,2023-04-06_10h14.57.597,040601,5,5,1,p,0.3933,none,BL,False,1680747297.5975,none
69,2023-04-06_10h15.00.413,040601,5,6,2,w,0.3819,0.6959,YR,True,1680747300.413,none
70,2023-04-06_10h15.03.231,040601,5,7,2,w,0.3974,0.7043,YL,True,1680747303.2313,none
71,2023-04-06_10h15.05.614,040601,5,8,1,p,0.2925,none,BR,False,1680747305.6143,none
72,2023-04-06_10h15.08.430,040601,5,9,2,w,0.2934,0.7106,YL,True,1680747308.4307,none
73,2023-04-06_10h15.11.247,040601,5,10,2,w,0.2844,0.7032,YL,True,1680747311.2476,none
74,2023-04-06_10h15.13.763,040601,5,11,1,p,0.411,none,BL,False,1680747313.7639,none
75,2023-04-06_10h15.16.214,040601,5,12,1,p,0.3605,none,BL,False,1680747316.2144,none
76,2023-04-06_10h15.19.030,040601,5,13,2,w,0.3731,0.7033,YR,True,1680747319.0309,none
77,2023-04-06_10h15.21.481,040601,5,14,1,p,0.3566,none,BR,False,1680747321.4811,none
78,2023-04-06_10h15.23.946,040601,5,15,1,p,0.3707,none,BL,False,1680747323.9465,none
79,2023-04-06_10h15.26.780,040601,5,16,2,w,0.3116,0.7102,YR,True,1680747326.7803,none
80,2023-04-06_10h15.59.313,040601,6,1,1,p,0.3547,none,BR,False,1680747359.3138,none
81,2023-04-06_10h16.01.697,040601,6,2,1,p,0.2893,none,BL,False,1680747361.6977,none
82,2023-04-06_10h16.04.163,040601,6,3,2,w,0.3616,none,YR,False,1680747364.1634,none
83,2023-04-06_10h16.06.780,040601,6,4,1,p,0.5113,none,BR,False,1680747366.7809,none
84,2023-04-06_10h16.09.214,040601,6,5,2,w,0.3349,none,YL,False,1680747369.2142,none
85,2023-04-06_10h16.11.647,040601,6,6,1,p,0.3409,none,BR,False,1680747371.6477,none
86,2023-04-06_10h16.13.997,040601,6,7,2,w,0.2596,none,YL,False,1680747373.9971,none
87,2023-04-06_10h16.16.430,040601,6,8,2,w,0.3334,none,YL,False,1680747376.4308,none
88,2023-04-06_10h16.18.930,040601,6,9,1,p,0.4041,none,BR,False,1680747378.9307,none
89,2023-04-06_10h16.21.347,040601,6,10,2,w,0.3122,none,YR,False,1680747381.3474,none
90,2023-04-06_10h16.23.763,040601,6,11,2,w,0.3116,none,YR,False,1680747383.7639,none
91,2023-04-06_10h16.26.180,040601,6,12,1,p,0.3272,none,BL,False,1680747386.1804,none
92,2023-04-06_10h16.28.580,040601,6,13,2,w,0.31,none,YL,False,1680747388.5803,none
93,2023-04-06_10h16.31.080,040601,6,14,1,p,0.4061,none,BL,False,1680747391.0808,none
94,2023-04-06_10h16.33.464,040601,6,15,2,w,0.2905,none,YR,False,1680747393.4641,none
95,2023-04-06_10h16.35.913,040601,6,16,1,p,0.3548,none,BL,False,1680747395.9137,none
96,2023-04-06_10h17.12.663,040601,7,1,2,w,0.4332,0.6615,YR,True,1680747432.6638,none
97,2023-04-06_10h17.15.098,040601,7,2,1,p,0.3309,none,BL,False,1680747435.0982,none
98,2023-04-06_10h17.17.781,040601,7,3,1,p,0.5858,none,BR,False,1680747437.7812,none
99,2023-04-06_10h17.20.214,040601,7,4,1,p,0.3344,none,BR,False,1680747440.2149,none
100,2023-04-06_10h17.22.614,040601,7,5,1,p,0.3008,none,BL,False,1680747442.6149,none
101,2023-04-06_10h17.25.114,040601,7,6,1,p,0.4042,none,BR,False,1680747445.1141,none
102,2023-04-06_10h17.27.881,040601,7,7,2,w,0.3604,0.6642,YL,True,1680747447.8812,none
103,2023-04-06_10h17.30.664,040601,7,8,2,w,0.3225,0.6801,YR,True,1680747450.665,none
104,2023-04-06_10h17.33.447,040601,7,9,2,w,0.3225,0.6784,YR,True,1680747453.448,none
105,2023-04-06_10h17.36.231,040601,7,10,2,w,0.3395,0.6698,YL,True,1680747456.2313,none
106,2023-04-06_10h17.39.013,040601,7,11,2,w,0.364,0.6604,YR,True,1680747459.0136,none
107,2023-04-06_10h17.41.548,040601,7,12,1,p,0.4292,none,BR,False,1680747461.5485,none
108,2023-04-06_10h17.44.331,040601,7,13,2,w,0.2872,0.6804,YL,True,1680747464.3316,none
109,2023-04-06_10h17.47.097,040601,7,14,2,w,0.2719,0.6615,YL,True,1680747467.0978,none
110,2023-04-06_10h17.49.530,040601,7,15,1,p,0.3376,none,BL,False,1680747469.5301,none
111,2023-04-06_10h17.51.997,040601,7,16,1,p,0.3756,none,BL,False,1680747471.9978,none
112,2023-04-06_10h18.25.965,040601,8,1,1,p,0.3608,none,BR,False,1680747505.9652,none
113,2023-04-06_10h18.28.398,040601,8,2,1,p,0.3412,none,BR,False,1680747508.3987,none
114,2023-04-06_10h18.30.815,040601,8,3,1,p,0.3168,none,BR,False,1680747510.8152,none
115,2023-04-06_10h18.33.581,040601,8,4,2,w,0.3164,0.6485,YR,True,1680747513.5819,none
116,2023-04-06_10h18.36.330,040601,8,5,2,w,0.2852,0.6448,YR,True,1680747516.3308,none
117,2023-04-06_10h18.39.097,040601,8,6,2,w,0.2718,0.6549,YR,True,1680747519.0975,none
118,2023-04-06_10h18.41.631,040601,8,7,1,p,0.4413,none,BL,False,1680747521.6316,none
119,2023-04-06_10h18.44.032,040601,8,8,1,p,0.3078,none,BL,False,1680747524.0321,none
120,2023-04-06_10h18.46.814,040601,8,9,2,w,0.3158,0.6606,YR,True,1680747526.8142,none
121,2023-04-06_10h18.49.564,040601,8,10,2,w,0.3886,0.6383,YL,True,1680747529.565,none
122,2023-04-06_10h18.52.014,040601,8,11,1,p,0.3578,none,BL,False,1680747532.0147,none
123,2023-04-06_10h18.54.781,040601,8,12,2,w,0.3322,0.6549,YL,True,1680747534.7815,none
124,2023-04-06_10h18.57.281,040601,8,13,1,p,0.3976,none,BR,False,1680747537.2816,none
125,2023-04-06_10h18.59.681,040601,8,14,1,p,0.2967,none,BL,False,1680747539.6816,none
126,2023-04-06_10h19.02.431,040601,8,15,2,w,0.3293,0.6337,YL,True,1680747542.4317,none
127,2023-04-06_10h19.05.181,040601,8,16,2,w,0.3074,0.6337,YL,True,1680747545.1815,none
128,2023-04-06_10h19.39.498,040601,9,1,1,p,0.3136,none,BL,False,1680747579.4983,none
129,2023-04-06_10h19.41.914,040601,9,2,1,p,0.3122,none,BL,False,1680747581.9149,none
130,2023-04-06_10h19.44.347,040601,9,3,1,p,0.3279,none,BL,False,1680747584.3479,none
131,2023-04-06_10h19.47.048,040601,9,4,2,w,0.3022,0.5937,YL,True,1680747587.0483,none
132,2023-04-06_10h19.49.616,040601,9,5,1,p,0.4749,none,BR,False,1680747589.6165,none
133,2023-04-06_10h19.52.364,040601,9,6,2,w,0.2841,0.6308,YR,True,1680747592.3646,none
134,2023-04-06_10h19.55.114,040601,9,7,2,w,0.2862,0.6319,YR,True,1680747595.115,none
135,2023-04-06_10h19.57.815,040601,9,8,1,p,0.6077,none,BR,False,1680747597.8154,none
136,2023-04-06_10h20.00.314,040601,9,9,1,p,0.3956,none,BR,False,1680747600.3149,none
137,2023-04-06_10h20.03.031,040601,9,10,2,w,0.3997,0.6073,YR,True,1680747603.0317,none
138,2023-04-06_10h20.05.748,040601,9,11,2,w,0.3309,0.5954,YL,True,1680747605.7484,none
139,2023-04-06_10h20.08.481,040601,9,12,2,w,0.327,0.6288,YL,True,1680747608.4814,none
140,2023-04-06_10h20.11.197,040601,9,13,2,w,0.3134,0.6038,YL,True,1680747611.1978,none
141,2023-04-06_10h20.13.931,040601,9,14,2,w,0.3085,0.6261,YR,True,1680747613.9319,none
142,2023-04-06_10h20.16.398,040601,9,15,1,p,0.3671,none,BR,False,1680747616.3988,none
143,2023-04-06_10h20.18.898,040601,9,16,1,p,0.3964,none,BL,False,1680747618.8986,none
144,2023-04-06_10h20.56.281,040601,10,1,1,p,0.2972,none,BR,False,1680747656.2814,none
145,2023-04-06_10h20.58.665,040601,10,2,1,p,0.2903,none,BR,False,1680747658.6654,none
146,2023-04-06_10h21.01.032,040601,10,3,1,p,0.2741,none,BL,False,1680747661.0323,none
147,2023-04-06_10h21.03.414,040601,10,4,1,p,0.2903,none,BL,False,1680747663.4149,none
148,2023-04-06_10h21.06.114,040601,10,5,2,w,0.3076,0.5947,YR,True,1680747666.1149,none
149,2023-04-06_10h21.08.781,040601,10,6,2,w,0.2714,0.5648,YR,True,1680747668.7814,none
150,2023-04-06_10h21.11.465,040601,10,7,2,w,0.3573,0.5825,YL,True,1680747671.4654,none
151,2023-04-06_10h21.13.831,040601,10,8,1,p,0.273,none,BR,False,1680747673.8315,none
152,2023-04-06_10h21.16.215,040601,10,9,1,p,0.2831,none,BR,False,1680747676.2151,none
153,2023-04-06_10h21.18.931,040601,10,10,2,w,0.2833,0.5948,YL,True,1680747678.9319,none
154,2023-04-06_10h21.21.398,040601,10,11,1,p,0.3672,none,BL,False,1680747681.3987,none
155,2023-04-06_10h21.24.081,040601,10,12,2,w,0.3804,0.5655,YL,True,1680747684.0812,none
156,2023-04-06_10h21.26.765,040601,10,13,2,w,0.4492,0.5725,YL,True,1680747686.7654,none
157,2023-04-06_10h21.29.448,040601,10,14,2,w,0.3494,0.5687,YR,True,1680747689.4488,none
158,2023-04-06_10h21.31.865,040601,10,15,1,p,0.3146,none,BL,False,1680747691.8657,none
159,2023-04-06_10h21.34.549,040601,10,16,2,w,0.2981,0.5725,YR,True,1680747694.5496,none
160,2023-04-06_10h22.03.715,040601,11,1,2,w,0.3469,0.5585,YL,True,1680747723.7156,none
161,2023-04-06_10h22.06.415,040601,11,2,2,w,0.2634,0.5892,YR,True,1680747726.4157,none
162,2023-04-06_10h22.08.999,040601,11,3,1,p,0.4913,none,BL,False,1680747728.9996,none
163,2023-04-06_10h22.11.465,040601,11,4,1,p,0.3646,none,BL,False,1680747731.4654,none
164,2023-04-06_10h22.13.814,040601,11,5,1,p,0.2498,none,BR,False,1680747733.8149,none
165,2023-04-06_10h22.16.149,040601,11,6,1,p,0.2351,none,BL,False,1680747736.1493,none
166,2023-04-06_10h22.18.548,040601,11,7,1,p,0.302,none,BL,False,1680747738.5485,none
167,2023-04-06_10h22.20.915,040601,11,8,1,p,0.2703,none,BR,False,1680747740.9155,none
168,2023-04-06_10h22.23.565,040601,11,9,2,w,0.3434,0.5415,YR,True,1680747743.5653,none
169,2023-04-06_10h22.26.149,040601,11,10,1,p,0.4845,none,BR,False,1680747746.1492,none
170,2023-04-06_10h22.28.815,040601,11,11,2,w,0.3178,0.5557,YL,True,1680747748.8158,none
171,2023-04-06_10h22.31.515,040601,11,12,2,w,0.2984,0.5752,YL,True,1680747751.5156,none
172,2023-04-06_10h22.34.199,040601,11,13,2,w,0.3194,0.5665,YL,True,1680747754.1994,none
173,2023-04-06_10h22.36.865,040601,11,14,2,w,0.292,0.5596,YR,True,1680747756.8658,none
174,2023-04-06_10h22.39.531,040601,11,15,2,w,0.4178,0.5597,YR,True,1680747759.5316,none
175,2023-04-06_10h22.42.016,040601,11,16,1,p,0.3906,none,BR,False,1680747762.0163,none
176,2023-04-06_10h23.16.664,040601,12,1,2,w,0.3716,none,YL,False,1680747796.665,none
177,2023-04-06_10h23.19.182,040601,12,2,2,w,0.4248,none,YR,False,1680747799.1823,none
178,2023-04-06_10h23.21.715,040601,12,3,1,p,0.4286,none,BL,False,1680747801.717,none
179,2023-04-06_10h23.24.183,040601,12,4,1,p,0.375,none,BR,False,1680747804.183,none
180,2023-04-06_10h23.26.732,040601,12,5,1,p,0.4523,none,BR,False,1680747806.7326,none
181,2023-04-06_10h23.29.165,040601,12,6,1,p,0.3417,none,BL,False,1680747809.1659,none
182,2023-04-06_10h23.31.566,040601,12,7,2,w,0.301,none,YL,False,1680747811.5661,none
183,2023-04-06_10h23.33.982,040601,12,8,2,w,0.3249,none,YR,False,1680747813.9825,none
184,2023-04-06_10h23.36.415,040601,12,9,1,p,0.3403,none,BL,False,1680747816.4158,none
185,2023-04-06_10h23.38.900,040601,12,10,1,p,0.3873,none,BL,False,1680747818.9001,none
186,2023-04-06_10h23.41.432,040601,12,11,2,w,0.4235,none,YL,False,1680747821.4321,none
187,2023-04-06_10h23.44.049,040601,12,12,2,w,0.5143,none,YR,False,1680747824.0498,none
188,2023-04-06_10h23.46.449,040601,12,13,2,w,0.3056,none,YL,False,1680747826.4493,none
189,2023-04-06_10h23.48.966,040601,12,14,1,p,0.4177,none,BR,False,1680747828.9662,none
190,2023-04-06_10h23.51.349,040601,12,15,2,w,0.2931,none,YR,False,1680747831.3497,none
191,2023-04-06_10h23.53.982,040601,12,16,1,p,0.5338,none,BR,False,1680747833.9827,none
192,2023-04-06_10h24.29.000,040601,13,1,2,w,0.3409,0.5313,YL,True,1680747869.0001,none
193,2023-04-06_10h24.31.499,040601,13,2,1,p,0.4036,none,BR,False,1680747871.4996,none
194,2023-04-06_10h24.34.249,040601,13,3,1,p,0.6478,none,BL,False,1680747874.2494,none
195,2023-04-06_10h24.36.932,040601,13,4,2,w,0.3609,0.5622,YL,True,1680747876.9324,none
196,2023-04-06_10h24.39.483,040601,13,5,1,p,0.4464,none,BR,False,1680747879.483,none
197,2023-04-06_10h24.42.133,040601,13,6,2,w,0.3362,0.5384,YR,True,1680747882.1332,none
198,2023-04-06_10h24.44.566,040601,13,7,1,p,0.3421,none,BL,False,1680747884.5663,none
199,2023-04-06_10h24.47.182,040601,13,8,1,p,0.5247,none,BL,False,1680747887.182,none
200,2023-04-06_10h24.49.833,040601,13,9,2,w,0.2926,0.5491,YL,True,1680747889.8331,none
201,2023-04-06_10h24.52.251,040601,13,10,1,p,0.3213,none,BR,False,1680747892.251,none
202,2023-04-06_10h24.54.916,040601,13,11,2,w,0.4977,0.5425,YR,True,1680747894.9169,none
203,2023-04-06_10h24.57.383,040601,13,12,1,p,0.3665,none,BR,False,1680747897.3832,none
204,2023-04-06_10h25.00.016,040601,13,13,2,w,0.3084,0.5283,YR,True,1680747900.0167,none
205,2023-04-06_10h25.02.632,040601,13,14,2,w,0.4022,0.5104,YL,True,1680747902.6324,none
206,2023-04-06_10h25.05.100,040601,13,15,1,p,0.3619,none,BL,False,1680747905.1002,none
207,2023-04-06_10h25.07.732,040601,13,16,2,w,0.3037,0.515,YR,True,1680747907.733,none
208,2023-04-06_10h25.42.933,040601,14,1,2,w,0.3018,0.4928,YL,True,1680747942.9337,none
209,2023-04-06_10h25.45.433,040601,14,2,1,p,0.3973,none,BR,False,1680747945.4336,none
210,2023-04-06_10h25.48.082,040601,14,3,2,w,0.3696,0.5422,YR,True,1680747948.0828,none
211,2023-04-06_10h25.50.532,040601,14,4,1,p,0.3514,none,BR,False,1680747950.5326,none
212,2023-04-06_10h25.52.984,040601,14,5,1,p,0.3577,none,BL,False,1680747952.9841,none
213,2023-04-06_10h25.55.615,040601,14,6,2,w,0.3555,0.5259,YL,True,1680747955.616,none
214,2023-04-06_10h25.58.199,040601,14,7,2,w,0.3067,0.4764,YR,True,1680747958.1996,none
215,2023-04-06_10h26.00.799,040601,14,8,2,w,0.3393,0.4906,YR,True,1680747960.8,none
216,2023-04-06_10h26.03.233,040601,14,9,1,p,0.3312,none,BL,False,1680747963.2339,none
217,2023-04-06_10h26.05.883,040601,14,10,2,w,0.3459,0.5236,YL,True,1680747965.8836,none
218,2023-04-06_10h26.08.466,040601,14,11,1,p,0.488,none,BR,False,1680747968.4663,none
219,2023-04-06_10h26.10.967,040601,14,12,1,p,0.4004,none,BL,False,1680747970.9673,none
220,2023-04-06_10h26.13.583,040601,14,13,2,w,0.2925,0.5072,YR,True,1680747973.5835,none
221,2023-04-06_10h26.16.016,040601,14,14,1,p,0.3394,none,BR,False,1680747976.0164,none
222,2023-04-06_10h26.18.449,040601,14,15,1,p,0.3303,none,BL,False,1680747978.4494,none
223,2023-04-06_10h26.21.016,040601,14,16,2,w,0.3048,0.4619,YL,True,1680747981.0162,none
224,2023-04-06_10h27.28.716,040601,15,1,2,w,0.3334,0.4298,YL,True,1680748048.7163,none
225,2023-04-06_10h27.31.133,040601,15,2,1,p,0.326,none,BR,False,1680748051.1332,none
226,2023-04-06_10h27.33.700,040601,15,3,2,w,0.3323,0.4458,YR,True,1680748053.7005,none
227,2023-04-06_10h27.36.151,040601,15,4,1,p,0.3506,none,BR,False,1680748056.1514,none
228,2023-04-06_10h27.38.734,040601,15,5,2,w,0.3084,0.4835,YR,True,1680748058.734,none
229,2023-04-06_10h27.41.332,040601,15,6,2,w,0.3094,0.4958,YL,True,1680748061.3329,none
230,2023-04-06_10h27.43.867,040601,15,7,2,w,0.2771,0.4363,YR,True,1680748063.8676,none
231,2023-04-06_10h27.46.316,040601,15,8,1,p,0.3521,none,BL,False,1680748066.3172,none
232,2023-04-06_10h27.48.901,040601,15,9,2,w,0.3102,0.4842,YL,True,1680748068.9011,none
233,2023-04-06_10h27.51.433,040601,15,10,1,p,0.4141,none,BL,False,1680748071.4338,none
234,2023-04-06_10h27.53.967,040601,15,11,1,p,0.4411,none,BR,False,1680748073.9671,none
235,2023-04-06_10h27.56.549,040601,15,12,1,p,0.4833,none,BR,False,1680748076.5495,none
236,2023-04-06_10h27.59.133,040601,15,13,2,w,0.3002,0.47,YR,True,1680748079.1338,none
237,2023-04-06_10h28.01.534,040601,15,14,1,p,0.3093,none,BL,False,1680748081.5342,none
238,2023-04-06_10h28.04.000,040601,15,15,1,p,0.3654,none,BL,False,1680748084.0001,none
239,2023-04-06_10h28.06.550,040601,15,16,2,w,0.3377,0.4403,YL,True,1680748086.5501,none
240,2023-04-06_10h28.39.667,040601,16,1,1,p,0.3381,none,BL,False,1680748119.6672,none
241,2023-04-06_10h28.42.250,040601,16,2,2,w,0.3437,0.4571,YL,True,1680748122.2506,none
242,2023-04-06_10h28.44.684,040601,16,3,1,p,0.3358,none,BR,False,1680748124.6847,none
243,2023-04-06_10h28.47.084,040601,16,4,1,p,0.2785,none,BR,False,1680748127.0841,none
244,2023-04-06_10h28.49.500,040601,16,5,1,p,0.327,none,BR,False,1680748129.5008,none
245,2023-04-06_10h28.52.001,040601,16,6,2,w,0.3742,0.401,YR,True,1680748132.0011,none
246,2023-04-06_10h28.54.516,040601,16,7,2,w,0.2975,0.3969,YR,True,1680748134.5165,none
247,2023-04-06_10h28.57.066,040601,16,8,1,p,0.4455,none,BL,False,1680748137.0666,none
248,2023-04-06_10h28.59.583,040601,16,9,2,w,0.3596,0.4051,YL,True,1680748139.5832,none
249,2023-04-06_10h29.02.050,040601,16,10,1,p,0.3633,none,BL,False,1680748142.0509,none
250,2023-04-06_10h29.04.633,040601,16,11,2,w,0.4321,0.4655,YL,True,1680748144.6339,none
251,2023-04-06_10h29.07.200,040601,16,12,2,w,0.305,0.4588,YR,True,1680748147.2004,none
252,2023-04-06_10h29.09.666,040601,16,13,1,p,0.362,none,BL,False,1680748149.6665,none
253,2023-04-06_10h29.12.200,040601,16,14,2,w,0.2873,0.4174,YL,True,1680748152.2009,none
254,2023-04-06_10h29.14.699,040601,16,15,1,p,0.4024,none,BR,False,1680748154.6999,none
255,2023-04-06_10h29.17.267,040601,16,16,2,w,0.2383,0.4602,YR,True,1680748157.2676,none
256,2023-04-06_10h29.52.501,040601,17,1,2,w,0.3519,none,YR,False,1680748192.5016,none
257,2023-04-06_10h29.54.884,040601,17,2,2,w,0.286,none,YR,False,1680748194.8842,none
258,2023-04-06_10h29.57.334,040601,17,3,1,p,0.3508,none,BR,False,1680748197.3341,none
259,2023-04-06_10h29.59.684,040601,17,4,2,w,0.2526,none,YL,False,1680748199.6843,none
260,2023-04-06_10h30.02.134,040601,17,5,1,p,0.3511,none,BL,False,1680748202.1341,none
261,2023-04-06_10h30.04.583,040601,17,6,1,p,0.3565,none,BL,False,1680748204.5838,none
262,2023-04-06_10h30.06.967,040601,17,7,2,w,0.2898,none,YL,False,1680748206.9674,none
263,2023-04-06_10h30.09.483,040601,17,8,1,p,0.4115,none,BR,False,1680748209.4834,none
264,2023-04-06_10h30.11.867,040601,17,9,2,w,0.2858,none,YL,False,1680748211.8675,none
265,2023-04-06_10h30.14.418,040601,17,10,1,p,0.4558,none,BL,False,1680748214.4181,none
266,2023-04-06_10h30.16.784,040601,17,11,2,w,0.2733,none,YR,False,1680748216.7857,none
267,2023-04-06_10h30.19.184,040601,17,12,2,w,0.2818,none,YR,False,1680748219.1841,none
268,2023-04-06_10h30.21.583,040601,17,13,2,w,0.3068,none,YL,False,1680748221.5839,none
269,2023-04-06_10h30.24.085,040601,17,14,1,p,0.3949,none,BR,False,1680748224.0856,none
270,2023-04-06_10h30.26.568,040601,17,15,1,p,0.3658,none,BL,False,1680748226.5686,none
271,2023-04-06_10h30.29.033,040601,17,16,1,p,0.3549,none,BR,False,1680748229.0339,none
272,2023-04-06_10h31.04.618,040601,18,1,1,p,0.3887,none,BL,False,1680748264.6185,none
273,2023-04-06_10h31.07.101,040601,18,2,2,w,0.2972,0.3637,YL,True,1680748267.1015,none
274,2023-04-06_10h31.09.600,040601,18,3,2,w,0.2775,0.3746,YR,True,1680748269.6007,none
275,2023-04-06_10h31.12.085,040601,18,4,2,w,0.3214,0.3677,YR,True,1680748272.0851,none
276,2023-04-06_10h31.14.567,040601,18,5,1,p,0.3905,none,BR,False,1680748274.5672,none
277,2023-04-06_10h31.17.067,040601,18,6,1,p,0.4033,none,BL,False,1680748277.068,none
278,2023-04-06_10h31.19.584,040601,18,7,2,w,0.2951,0.3964,YL,True,1680748279.5849,none
279,2023-04-06_10h31.22.084,040601,18,8,2,w,0.3223,0.3969,YL,True,1680748282.0846,none
280,2023-04-06_10h31.24.585,040601,18,9,2,w,0.3023,0.3877,YR,True,1680748284.5856,none
281,2023-04-06_10h31.27.451,040601,18,10,1,p,0.7452,none,BR,False,1680748287.451,none
282,2023-04-06_10h31.29.951,040601,18,11,2,w,0.3119,0.3881,YL,True,1680748289.9512,none
283,2023-04-06_10h31.32.383,040601,18,12,1,p,0.3388,none,BL,False,1680748292.3848,none
284,2023-04-06_10h31.34.885,040601,18,13,2,w,0.2588,0.402,YR,True,1680748294.8851,none
285,2023-04-06_10h31.37.334,040601,18,14,1,p,0.3502,none,BL,False,1680748297.3346,none
286,2023-04-06_10h31.39.767,040601,18,15,1,p,0.3329,none,BR,False,1680748299.7679,none
287,2023-04-06_10h31.42.285,040601,18,16,1,p,0.4273,none,BR,False,1680748302.2852,none
288,2023-04-06_10h32.17.467,040601,19,1,1,p,0.2946,none,BL,False,1680748337.4677,none
289,2023-04-06_10h32.20.001,040601,19,2,2,w,0.327,0.4221,YL,True,1680748340.0012,none
290,2023-04-06_10h32.22.518,040601,19,3,2,w,0.3453,0.3966,YL,True,1680748342.5181,none
291,2023-04-06_10h32.25.052,040601,19,4,2,w,0.3168,0.4151,YL,True,1680748345.052,none
292,2023-04-06_10h32.27.618,040601,19,5,2,w,0.2793,0.4406,YR,True,1680748347.6181,none
293,2023-04-06_10h32.30.085,040601,19,6,1,p,0.3768,none,BL,False,1680748350.0854,none
294,2023-04-06_10h32.32.584,040601,19,7,1,p,0.398,none,BR,False,1680748352.5844,none
295,2023-04-06_10h32.35.150,040601,19,8,2,w,0.346,0.4464,YR,True,1680748355.1509,none
296,2023-04-06_10h32.37.667,040601,19,9,2,w,0.2919,0.4051,YL,True,1680748357.6677,none
297,2023-04-06_10h32.40.151,040601,19,10,1,p,0.3828,none,BR,False,1680748360.1511,none
298,2023-04-06_10h32.42.601,040601,19,11,1,p,0.3551,none,BR,False,1680748362.6012,none
299,2023-04-06_10h32.45.135,040601,19,12,2,w,0.2813,0.4196,YR,True,1680748365.1359,none
300,2023-04-06_10h32.47.618,040601,19,13,1,p,0.3878,none,BR,False,1680748367.6183,none
301,2023-04-06_10h32.50.051,040601,19,14,1,p,0.3282,none,BL,False,1680748370.0513,none
302,2023-04-06_10h32.52.501,040601,19,15,2,w,0.287,0.3367,YR,True,1680748372.5012,none
303,2023-04-06_10h32.55.034,040601,19,16,1,p,0.4295,none,BL,False,1680748375.0346,none
304,2023-04-06_10h33.34.635,040601,20,1,2,w,0.4973,0.352,YL,True,1680748414.6355,none
305,2023-04-06_10h33.37.101,040601,20,2,2,w,0.2637,0.3478,YR,True,1680748417.1012,none
306,2023-04-06_10h33.39.652,040601,20,3,1,p,0.445,none,BL,False,1680748419.6522,none
307,2023-04-06_10h33.42.134,040601,20,4,1,p,0.3913,none,BL,False,1680748422.135,none
308,2023-04-06_10h33.44.668,040601,20,5,2,w,0.4154,0.3376,YR,True,1680748424.6686,none
309,2023-04-06_10h33.47.185,040601,20,6,2,w,0.3345,0.4076,YR,True,1680748427.185,none
310,2023-04-06_10h33.49.668,040601,20,7,2,w,0.2728,0.3755,YR,True,1680748429.6688,none
311,2023-04-06_10h33.52.101,040601,20,8,1,p,0.3344,none,BR,False,1680748432.1017,none
312,2023-04-06_10h33.54.519,040601,20,9,1,p,0.325,none,BL,False,1680748434.5193,none
313,2023-04-06_10h33.57.035,040601,20,10,2,w,0.3008,0.3979,YL,True,1680748437.0353,none
314,2023-04-06_10h33.59.501,040601,20,11,2,w,0.2879,0.3587,YL,True,1680748439.5016,none
315,2023-04-06_10h34.01.951,040601,20,12,2,w,0.3404,0.3165,YL,True,1680748441.9514,none
316,2023-04-06_10h34.04.468,040601,20,13,1,p,0.4271,none,BR,False,1680748444.4684,none
317,2023-04-06_10h34.06.968,040601,20,14,1,p,0.3978,none,BL,False,1680748446.9684,none
318,2023-04-06_10h34.09.534,040601,20,15,1,p,0.4656,none,BR,False,1680748449.535,none
319,2023-04-06_10h34.12.185,040601,20,16,1,p,0.5482,none,BR,False,1680748452.1856,none
