,timestamp,experiment_ID,block_ID,stimulus_ID,subject,key_press,rt,fake_human_rt,trial_stim,fake_or_not,UNIX_time,wrong_type
0,2023-04-08_11h06.15.301,0408_02,1,1,2,w,0.393,none,YR,False,1680923175.3016,none
1,2023-04-08_11h06.17.752,0408_02,1,2,1,p,0.3488,none,BR,False,1680923177.7526,none
2,2023-04-08_11h06.20.368,0408_02,1,3,2,w,0.5155,none,YR,False,1680923180.3689,none
3,2023-04-08_11h06.22.901,0408_02,1,4,2,w,0.4423,none,YL,False,1680923182.9025,none
4,2023-04-08_11h06.25.435,0408_02,1,5,1,p,0.4296,none,BR,False,1680923185.4352,none
5,2023-04-08_11h06.27.935,0408_02,1,6,1,p,0.3994,none,BR,False,1680923187.9358,none
6,2023-04-08_11h06.30.485,0408_02,1,7,2,w,0.4441,none,YR,False,1680923190.4858,none
7,2023-04-08_11h06.32.951,0408_02,1,8,1,p,0.3739,none,BL,False,1680923192.9519,none
8,2023-04-08_11h06.35.384,0408_02,1,9,1,p,0.3399,none,BL,False,1680923195.3847,none
9,2023-04-08_11h06.37.818,0408_02,1,10,1,p,0.3299,none,BL,False,1680923197.8184,none
10,2023-04-08_11h06.40.302,0408_02,1,11,2,w,0.3845,none,YR,False,1680923200.3026,none
11,2023-04-08_11h06.43.302,0408_02,1,12,2,w,0.9096,none,YL,False,1680923203.3025,none
12,2023-04-08_11h06.45.968,0408_02,1,13,2,w,0.5656,none,YL,False,1680923205.9684,none
13,2023-04-08_11h06.48.435,0408_02,1,14,1,p,0.3707,none,BR,False,1680923208.4361,none
14,2023-04-08_11h06.50.936,0408_02,1,15,2,w,0.4004,none,YL,False,1680923210.9364,none
15,2023-04-08_11h06.53.502,0408_02,1,16,1,p,0.4677,none,BL,False,1680923213.5021,none
16,2023-04-08_11h07.28.218,0408_02,2,1,1,p,0.3374,none,BL,False,1680923248.2187,none
17,2023-04-08_11h07.30.669,0408_02,2,2,1,p,0.3445,none,BL,False,1680923250.6692,none
18,2023-04-08_11h07.33.235,0408_02,2,3,2,w,0.4708,none,YL,False,1680923253.2355,none
19,2023-04-08_11h07.35.618,0408_02,2,4,1,p,0.2802,none,BR,False,1680923255.6185,none
20,2023-04-08_11h07.38.068,0408_02,2,5,2,w,0.3449,none,YR,False,1680923258.0686,none
21,2023-04-08_11h07.40.503,0408_02,2,6,1,p,0.3427,none,BR,False,1680923260.5031,none
22,2023-04-08_11h07.42.984,0408_02,2,7,2,w,0.39,none,YL,False,1680923262.9848,none
23,2023-04-08_11h07.45.468,0408_02,2,8,2,w,0.3782,none,YR,False,1680923265.469,none
24,2023-04-08_11h07.47.885,0408_02,2,9,2,w,0.3261,none,YL,False,1680923267.8854,none
25,2023-04-08_11h07.50.468,0408_02,2,10,2,w,0.4939,none,YR,False,1680923270.4685,none
26,2023-04-08_11h07.52.885,0408_02,2,11,1,p,0.3183,none,BR,False,1680923272.8856,none
27,2023-04-08_11h07.55.318,0408_02,2,12,2,w,0.3343,none,YL,False,1680923275.3183,none
28,2023-04-08_11h07.57.852,0408_02,2,13,1,p,0.4285,none,BL,False,1680923277.8525,none
29,2023-04-08_11h08.00.419,0408_02,2,14,2,w,0.4632,none,YR,False,1680923280.4195,none
30,2023-04-08_11h08.02.852,0408_02,2,15,1,p,0.3441,none,BL,False,1680923282.8526,none
31,2023-04-08_11h08.05.301,0408_02,2,16,1,p,0.3593,none,BR,False,1680923285.3016,none
32,2023-04-08_11h08.39.853,0408_02,3,1,1,p,0.3195,none,BL,False,1680923319.8532,none
33,2023-04-08_11h08.42.269,0408_02,3,2,1,p,0.3111,none,BL,False,1680923322.2698,none
34,2023-04-08_11h08.44.652,0408_02,3,3,1,p,0.2863,none,BL,False,1680923324.6526,none
35,2023-04-08_11h08.47.169,0408_02,3,4,2,w,0.415,none,YL,False,1680923327.1693,none
36,2023-04-08_11h08.49.869,0408_02,3,5,2,w,0.6025,none,YR,False,1680923329.869,none
37,2023-04-08_11h08.52.419,0408_02,3,6,2,w,0.4544,none,YR,False,1680923332.4193,none
38,2023-04-08_11h08.54.835,0408_02,3,7,1,p,0.3202,none,BR,False,1680923334.8351,none
39,2023-04-08_11h08.57.401,0408_02,3,8,2,w,0.4721,none,YL,False,1680923337.4015,none
40,2023-04-08_11h08.59.818,0408_02,3,9,1,p,0.3136,none,BR,False,1680923339.8189,none
41,2023-04-08_11h09.02.484,0408_02,3,10,1,p,0.5765,none,BL,False,1680923342.4848,none
42,2023-04-08_11h09.04.918,0408_02,3,11,2,w,0.342,none,YR,False,1680923344.9187,none
43,2023-04-08_11h09.07.418,0408_02,3,12,1,p,0.4047,none,BR,False,1680923347.4187,none
44,2023-04-08_11h09.09.918,0408_02,3,13,1,p,0.408,none,BR,False,1680923349.9186,none
45,2023-04-08_11h09.12.385,0408_02,3,14,2,w,0.3636,none,YR,False,1680923352.3851,none
46,2023-04-08_11h09.14.852,0408_02,3,15,2,w,0.3616,none,YL,False,1680923354.8526,none
47,2023-04-08_11h09.17.218,0408_02,3,16,2,w,0.2713,none,YL,False,1680923357.2189,none
48,2023-04-08_11h09.52.602,0408_02,4,1,2,w,0.4202,0.7667,YL,True,1680923392.6022,none
49,2023-04-08_11h09.55.485,0408_02,4,2,2,w,0.3209,0.7667,YL,True,1680923395.4857,none
50,2023-04-08_11h09.57.985,0408_02,4,3,1,p,0.3978,none,BR,False,1680923397.986,none
51,2023-04-08_11h10.00.435,0408_02,4,4,1,p,0.3452,none,BL,False,1680923400.4356,none
52,2023-04-08_11h10.02.852,0408_02,4,5,1,p,0.3266,none,BL,False,1680923402.8528,none
53,2023-04-08_11h10.05.736,0408_02,4,6,2,w,0.4627,0.7667,YR,True,1680923405.7361,none
54,2023-04-08_11h10.08.618,0408_02,4,7,2,w,0.3715,0.7667,YR,True,1680923408.6188,none
55,2023-04-08_11h10.11.502,0408_02,4,8,2,w,0.3681,0.7667,YR,True,1680923411.5024,none
56,2023-04-08_11h10.13.870,0408_02,4,9,1,p,0.2687,none,BL,False,1680923413.8705,none
57,2023-04-08_11h10.16.302,0408_02,4,10,1,p,0.3426,none,BL,False,1680923416.3021,none
58,2023-04-08_11h10.18.685,0408_02,4,11,1,p,0.2932,none,BR,False,1680923418.6859,none
59,2023-04-08_11h10.21.103,0408_02,4,12,1,p,0.3175,none,BR,False,1680923421.1032,none
60,2023-04-08_11h10.23.968,0408_02,4,13,2,w,0.3889,0.7667,YR,True,1680923423.9686,none
61,2023-04-08_11h10.26.852,0408_02,4,14,2,w,0.5063,0.7667,YL,True,1680923426.8529,none
62,2023-04-08_11h10.29.718,0408_02,4,15,2,w,0.5751,0.7667,YL,True,1680923429.7186,none
63,2023-04-08_11h10.32.168,0408_02,4,16,1,p,0.3562,none,BR,False,1680923432.1689,none
64,2023-04-08_11h11.07.785,0408_02,5,1,2,w,0.4119,0.7396,YL,True,1680923467.7858,none
65,2023-04-08_11h11.10.186,0408_02,5,2,1,p,0.3055,none,BR,False,1680923470.1861,none
66,2023-04-08_11h11.13.036,0408_02,5,3,2,w,0.4087,0.7383,YR,True,1680923473.0361,none
67,2023-04-08_11h11.15.436,0408_02,5,4,1,p,0.3035,none,BR,False,1680923475.4362,none
68,2023-04-08_11h11.17.870,0408_02,5,5,1,p,0.3433,none,BL,False,1680923477.8706,none
69,2023-04-08_11h11.20.718,0408_02,5,6,2,w,0.3259,0.7427,YR,True,1680923480.719,none
70,2023-04-08_11h11.23.570,0408_02,5,7,2,w,0.6124,0.7354,YL,True,1680923483.5705,none
71,2023-04-08_11h11.26.103,0408_02,5,8,1,p,0.4334,none,BR,False,1680923486.1031,none
72,2023-04-08_11h11.28.952,0408_02,5,9,2,w,0.3409,0.7399,YL,True,1680923488.9529,none
73,2023-04-08_11h11.31.385,0408_02,5,10,1,p,0.3385,none,BR,False,1680923491.3858,none
74,2023-04-08_11h11.34.152,0408_02,5,11,1,p,0.6732,none,BL,False,1680923494.1525,none
75,2023-04-08_11h11.36.653,0408_02,5,12,1,p,0.4027,none,BL,False,1680923496.6536,none
76,2023-04-08_11h11.39.519,0408_02,5,13,2,w,0.4308,0.7427,YR,True,1680923499.5192,none
77,2023-04-08_11h11.42.369,0408_02,5,14,2,w,0.5798,0.7404,YL,True,1680923502.3694,none
78,2023-04-08_11h11.44.820,0408_02,5,15,1,p,0.354,none,BL,False,1680923504.8201,none
79,2023-04-08_11h11.47.652,0408_02,5,16,2,w,0.3437,0.7358,YR,True,1680923507.6528,none
80,2023-04-08_11h12.36.635,0408_02,6,1,2,w,0.3836,0.7086,YR,True,1680923556.6358,none
81,2023-04-08_11h12.39.451,0408_02,6,2,2,w,0.408,0.7187,YL,True,1680923559.4519,none
82,2023-04-08_11h12.42.285,0408_02,6,3,2,w,0.3583,0.7187,YR,True,1680923562.2857,none
83,2023-04-08_11h12.45.103,0408_02,6,4,2,w,0.357,0.7123,YR,True,1680923565.1031,none
84,2023-04-08_11h12.47.586,0408_02,6,5,1,p,0.3806,none,BL,False,1680923567.587,none
85,2023-04-08_11h12.49.986,0408_02,6,6,1,p,0.2972,none,BR,False,1680923569.9866,none
86,2023-04-08_11h12.52.386,0408_02,6,7,1,p,0.3051,none,BL,False,1680923572.3866,none
87,2023-04-08_11h12.54.870,0408_02,6,8,1,p,0.3777,none,BR,False,1680923574.8702,none
88,2023-04-08_11h12.57.685,0408_02,6,9,2,w,0.4217,0.7083,YL,True,1680923577.6858,none
89,2023-04-08_11h13.00.103,0408_02,6,10,1,p,0.3252,none,BR,False,1680923580.1037,none
90,2023-04-08_11h13.02.920,0408_02,6,11,2,w,0.3724,0.7089,YL,True,1680923582.9203,none
91,2023-04-08_11h13.05.736,0408_02,6,12,2,w,0.4118,0.7027,YR,True,1680923585.7364,none
92,2023-04-08_11h13.08.236,0408_02,6,13,1,p,0.3954,none,BR,False,1680923588.2377,none
93,2023-04-08_11h13.11.053,0408_02,6,14,2,w,0.4232,0.701,YL,True,1680923591.0534,none
94,2023-04-08_11h13.13.536,0408_02,6,15,1,p,0.39,none,BL,False,1680923593.5367,none
95,2023-04-08_11h13.16.119,0408_02,6,16,1,p,0.4828,none,BL,False,1680923596.12,none
96,2023-04-08_11h13.52.170,0408_02,7,1,1,p,0.2976,none,BR,False,1680923632.1701,none
97,2023-04-08_11h13.54.604,0408_02,7,2,1,p,0.3378,none,BL,False,1680923634.6041,none
98,2023-04-08_11h13.57.036,0408_02,7,3,1,p,0.3283,none,BL,False,1680923637.0364,none
99,2023-04-08_11h13.59.438,0408_02,7,4,1,p,0.303,none,BR,False,1680923639.438,none
100,2023-04-08_11h14.02.219,0408_02,7,5,2,w,0.3913,0.6744,YR,True,1680923642.2193,none
101,2023-04-08_11h14.05.002,0408_02,7,6,2,w,0.3513,0.6751,YR,True,1680923645.0027,none
102,2023-04-08_11h14.07.803,0408_02,7,7,2,w,0.3673,0.6777,YL,True,1680923647.8039,none
103,2023-04-08_11h14.10.603,0408_02,7,8,2,w,0.3363,0.6871,YR,True,1680923650.6039,none
104,2023-04-08_11h14.13.386,0408_02,7,9,2,w,0.5435,0.6783,YL,True,1680923653.3863,none
105,2023-04-08_11h14.16.170,0408_02,7,10,2,w,0.2889,0.6717,YR,True,1680923656.1703,none
106,2023-04-08_11h14.18.953,0408_02,7,11,2,w,0.3616,0.6703,YL,True,1680923658.953,none
107,2023-04-08_11h14.21.537,0408_02,7,12,1,p,0.49,none,BL,False,1680923661.5372,none
108,2023-04-08_11h14.24.337,0408_02,7,13,2,w,0.3144,0.6796,YL,True,1680923664.337,none
109,2023-04-08_11h14.26.870,0408_02,7,14,1,p,0.435,none,BR,False,1680923666.8709,none
110,2023-04-08_11h14.29.403,0408_02,7,15,1,p,0.4293,none,BR,False,1680923669.4033,none
111,2023-04-08_11h14.31.886,0408_02,7,16,1,p,0.3923,none,BL,False,1680923671.8866,none
112,2023-04-08_11h15.05.052,0408_02,8,1,1,p,0.4111,none,BL,False,1680923705.053,none
113,2023-04-08_11h15.07.820,0408_02,8,2,2,w,0.3579,0.6584,YR,True,1680923707.8202,none
114,2023-04-08_11h15.10.586,0408_02,8,3,2,w,0.5592,0.6623,YL,True,1680923710.5868,none
115,2023-04-08_11h15.13.337,0408_02,8,4,2,w,0.4088,0.6501,YL,True,1680923713.3372,none
116,2023-04-08_11h15.15.820,0408_02,8,5,1,p,0.3869,none,BL,False,1680923715.8201,none
117,2023-04-08_11h15.18.319,0408_02,8,6,1,p,0.3994,none,BL,False,1680923718.3196,none
118,2023-04-08_11h15.20.787,0408_02,8,7,1,p,0.3702,none,BR,False,1680923720.7871,none
119,2023-04-08_11h15.23.537,0408_02,8,8,2,w,0.3048,0.6409,YL,True,1680923723.5379,none
120,2023-04-08_11h15.26.319,0408_02,8,9,2,w,0.4988,0.6647,YL,True,1680923726.3197,none
121,2023-04-08_11h15.28.753,0408_02,8,10,1,p,0.339,none,BR,False,1680923728.7537,none
122,2023-04-08_11h15.31.402,0408_02,8,11,1,p,0.5456,none,BR,False,1680923731.4037,none
123,2023-04-08_11h15.33.869,0408_02,8,12,1,p,0.3679,none,BL,False,1680923733.8696,none
124,2023-04-08_11h15.36.637,0408_02,8,13,2,w,0.4056,0.6645,YR,True,1680923736.6371,none
125,2023-04-08_11h15.39.387,0408_02,8,14,2,w,0.3183,0.6448,YR,True,1680923739.3873,none
126,2023-04-08_11h15.41.903,0408_02,8,15,1,p,0.4169,none,BR,False,1680923741.9031,none
127,2023-04-08_11h15.44.669,0408_02,8,16,2,w,0.4442,0.6702,YR,True,1680923744.6696,none
128,2023-04-08_11h16.20.737,0408_02,9,1,1,p,0.3658,none,BR,False,1680923780.7375,none
129,2023-04-08_11h16.23.153,0408_02,9,2,1,p,0.3139,none,BR,False,1680923783.154,none
130,2023-04-08_11h16.25.570,0408_02,9,3,1,p,0.3217,none,BL,False,1680923785.57,none
131,2023-04-08_11h16.28.287,0408_02,9,4,2,w,0.4251,0.6092,YL,True,1680923788.2872,none
132,2023-04-08_11h16.31.003,0408_02,9,5,2,w,0.4207,0.6034,YR,True,1680923791.0039,none
133,2023-04-08_11h16.33.437,0408_02,9,6,1,p,0.3357,none,BR,False,1680923793.4378,none
134,2023-04-08_11h16.36.204,0408_02,9,7,2,w,0.286,0.6465,YL,True,1680923796.2046,none
135,2023-04-08_11h16.39.171,0408_02,9,8,2,w,0.8514,0.6138,YR,True,1680923799.1714,none
136,2023-04-08_11h16.41.920,0408_02,9,9,2,w,0.3853,0.6426,YL,True,1680923801.9204,none
137,2023-04-08_11h16.44.488,0408_02,9,10,1,p,0.4752,none,BL,False,1680923804.4886,none
138,2023-04-08_11h16.47.237,0408_02,9,11,2,w,0.3241,0.6381,YR,True,1680923807.2372,none
139,2023-04-08_11h16.49.820,0408_02,9,12,1,p,0.4782,none,BL,False,1680923809.8202,none
140,2023-04-08_11h16.52.554,0408_02,9,13,2,w,0.3274,0.6301,YL,True,1680923812.5546,none
141,2023-04-08_11h16.54.970,0408_02,9,14,1,p,0.3135,none,BL,False,1680923814.9703,none
142,2023-04-08_11h16.57.386,0408_02,9,15,1,p,0.3212,none,BR,False,1680923817.3865,none
143,2023-04-08_11h17.00.103,0408_02,9,16,2,w,0.3921,0.6096,YR,True,1680923820.1039,none
144,2023-04-08_11h17.38.820,0408_02,10,1,2,w,0.45,0.5735,YL,True,1680923858.8207,none
145,2023-04-08_11h17.41.520,0408_02,10,2,2,w,0.3913,0.587,YL,True,1680923861.5207,none
146,2023-04-08_11h17.44.237,0408_02,10,3,2,w,0.3713,0.6112,YL,True,1680923864.2372,none
147,2023-04-08_11h17.46.754,0408_02,10,4,1,p,0.4223,none,BL,False,1680923866.7545,none
148,2023-04-08_11h17.49.152,0408_02,10,5,1,p,0.2986,none,BR,False,1680923869.1526,none
149,2023-04-08_11h17.51.869,0408_02,10,6,2,w,0.4741,0.6161,YL,True,1680923871.87,none
150,2023-04-08_11h17.54.604,0408_02,10,7,2,w,0.3567,0.6209,YR,True,1680923874.6041,none
151,2023-04-08_11h17.57.071,0408_02,10,8,1,p,0.3679,none,BL,False,1680923877.0716,none
152,2023-04-08_11h17.59.520,0408_02,10,9,1,p,0.349,none,BR,False,1680923879.521,none
153,2023-04-08_11h18.02.203,0408_02,10,10,2,w,0.4586,0.5788,YR,True,1680923882.2039,none
154,2023-04-08_11h18.04.587,0408_02,10,11,1,p,0.2875,none,BL,False,1680923884.5874,none
155,2023-04-08_11h18.07.304,0408_02,10,12,2,w,0.3439,0.6084,YR,True,1680923887.3042,none
156,2023-04-08_11h18.09.769,0408_02,10,13,1,p,0.3464,none,BR,False,1680923889.7699,none
157,2023-04-08_11h18.12.387,0408_02,10,14,1,p,0.5128,none,BL,False,1680923892.3872,none
158,2023-04-08_11h18.15.086,0408_02,10,15,2,w,0.3685,0.5865,YR,True,1680923895.0869,none
159,2023-04-08_11h18.17.521,0408_02,10,16,1,p,0.3323,none,BR,False,1680923897.5211,none
160,2023-04-08_11h19.05.986,0408_02,11,1,1,p,0.4293,none,BR,False,1680923945.9869,none
161,2023-04-08_11h19.08.421,0408_02,11,2,1,p,0.3363,none,BL,False,1680923948.4217,none
162,2023-04-08_11h19.10.837,0408_02,11,3,1,p,0.3111,none,BL,False,1680923950.8378,none
163,2023-04-08_11h19.13.220,0408_02,11,4,1,p,0.2785,none,BR,False,1680923953.2209,none
164,2023-04-08_11h19.15.870,0408_02,11,5,2,w,0.3666,0.5364,YL,True,1680923955.8707,none
165,2023-04-08_11h19.18.288,0408_02,11,6,1,p,0.3246,none,BL,False,1680923958.288,none
166,2023-04-08_11h19.20.737,0408_02,11,7,1,p,0.3558,none,BL,False,1680923960.7375,none
167,2023-04-08_11h19.23.387,0408_02,11,8,2,w,0.4019,0.5368,YR,True,1680923963.3876,none
168,2023-04-08_11h19.25.804,0408_02,11,9,1,p,0.3108,none,BR,False,1680923965.8048,none
169,2023-04-08_11h19.28.469,0408_02,11,10,2,w,0.344,0.5551,YL,True,1680923968.4698,none
170,2023-04-08_11h19.31.304,0408_02,11,11,2,w,0.7189,0.5785,YR,True,1680923971.3045,none
171,2023-04-08_11h19.33.721,0408_02,11,12,1,p,0.3148,none,BR,False,1680923973.7212,none
172,2023-04-08_11h19.36.404,0408_02,11,13,2,w,0.4021,0.571,YL,True,1680923976.4045,none
173,2023-04-08_11h19.39.104,0408_02,11,14,2,w,0.5808,0.5785,YL,True,1680923979.1046,none
174,2023-04-08_11h19.41.787,0408_02,11,15,2,w,0.2432,0.5747,YR,True,1680923981.7875,none
175,2023-04-08_11h19.44.487,0408_02,11,16,2,w,0.2638,0.5862,YR,True,1680923984.4878,none
176,2023-04-08_11h20.21.304,0408_02,12,1,2,w,0.4209,0.5216,YR,True,1680924021.3044,none
177,2023-04-08_11h20.23.704,0408_02,12,2,1,p,0.2993,none,BR,False,1680924023.7048,none
178,2023-04-08_11h20.26.205,0408_02,12,3,1,p,0.3945,none,BL,False,1680924026.2051,none
179,2023-04-08_11h20.28.687,0408_02,12,4,1,p,0.3835,none,BR,False,1680924028.6874,none
180,2023-04-08_11h20.31.004,0408_02,12,5,1,w,0.2115,none,BL,False,1680924031.0041,Wrong_press
181,2023-04-08_11h20.33.621,0408_02,12,6,2,w,0.3505,0.5104,YL,True,1680924033.6212,none
182,2023-04-08_11h20.36.021,0408_02,12,7,1,p,0.3107,none,BL,False,1680924036.0212,none
183,2023-04-08_11h20.38.654,0408_02,12,8,2,w,0.3745,0.5301,YL,True,1680924038.654,none
184,2023-04-08_11h20.41.087,0408_02,12,9,1,p,0.3412,none,BL,False,1680924041.0873,none
185,2023-04-08_11h20.43.487,0408_02,12,10,1,p,0.2996,none,BR,False,1680924043.4871,none
186,2023-04-08_11h20.46.137,0408_02,12,11,2,w,0.3717,0.5442,YR,True,1680924046.1379,none
187,2023-04-08_11h20.48.754,0408_02,12,12,2,w,0.3051,0.5111,YR,True,1680924048.7543,none
188,2023-04-08_11h20.51.171,0408_02,12,13,1,p,0.3205,none,BR,False,1680924051.1717,none
189,2023-04-08_11h20.53.787,0408_02,12,14,2,w,0.4642,0.5009,YL,True,1680924053.7878,none
190,2023-04-08_11h20.56.437,0408_02,12,15,2,w,0.3594,0.5457,YL,True,1680924056.4372,none
191,2023-04-08_11h20.59.121,0408_02,12,16,2,w,0.3097,0.5749,YR,True,1680924059.1216,none
192,2023-04-08_11h21.37.087,0408_02,13,1,2,w,0.5431,0.5103,YL,True,1680924097.0878,none
193,2023-04-08_11h21.39.521,0408_02,13,2,1,p,0.3313,none,BR,False,1680924099.5216,none
194,2023-04-08_11h21.41.920,0408_02,13,3,1,p,0.3061,none,BR,False,1680924101.9207,none
195,2023-04-08_11h21.44.321,0408_02,13,4,1,p,0.2985,none,BL,False,1680924104.3212,none
196,2023-04-08_11h21.46.721,0408_02,13,5,1,p,0.2976,none,BR,False,1680924106.7211,none
197,2023-04-08_11h21.49.338,0408_02,13,6,2,w,0.3463,0.5055,YR,True,1680924109.3381,none
198,2023-04-08_11h21.51.739,0408_02,13,7,1,p,0.2973,none,BL,False,1680924111.7391,none
199,2023-04-08_11h21.54.338,0408_02,13,8,2,w,0.3457,0.4876,YR,True,1680924114.338,none
200,2023-04-08_11h21.56.937,0408_02,13,9,2,w,0.3777,0.4807,YR,True,1680924116.9377,none
201,2023-04-08_11h21.59.555,0408_02,13,10,2,w,0.4332,0.4984,YL,True,1680924119.5557,none
202,2023-04-08_11h22.02.204,0408_02,13,11,2,w,0.3608,0.5431,YR,True,1680924122.2048,none
203,2023-04-08_11h22.04.638,0408_02,13,12,1,p,0.3347,none,BR,False,1680924124.6381,none
204,2023-04-08_11h22.07.088,0408_02,13,13,1,p,0.3576,none,BL,False,1680924127.0883,none
205,2023-04-08_11h22.09.621,0408_02,13,14,1,p,0.4434,none,BL,False,1680924129.6218,none
206,2023-04-08_11h22.12.271,0408_02,13,15,2,w,0.3979,0.5345,YL,True,1680924132.2714,none
207,2023-04-08_11h22.14.887,0408_02,13,16,2,w,0.396,0.4977,YL,True,1680924134.888,none
208,2023-04-08_11h22.49.888,0408_02,14,1,2,w,0.3661,none,YR,False,1680924169.8882,none
209,2023-04-08_11h22.52.339,0408_02,14,2,1,p,0.3465,none,BR,False,1680924172.3394,none
210,2023-04-08_11h22.54.739,0408_02,14,3,1,p,0.3052,none,BL,False,1680924174.739,none
211,2023-04-08_11h22.57.088,0408_02,14,4,1,p,0.2575,none,BL,False,1680924177.0883,none
212,2023-04-08_11h22.59.521,0408_02,14,5,1,p,0.3393,none,BR,False,1680924179.5217,none
213,2023-04-08_11h23.01.937,0408_02,14,6,2,w,0.3219,none,YR,False,1680924181.9376,none
214,2023-04-08_11h23.04.404,0408_02,14,7,2,w,0.3774,none,YR,False,1680924184.4047,none
215,2023-04-08_11h23.07.004,0408_02,14,8,1,p,0.5019,none,BL,False,1680924187.0042,none
216,2023-04-08_11h23.09.371,0408_02,14,9,1,p,0.2707,none,BR,False,1680924189.3713,none
217,2023-04-08_11h23.11.788,0408_02,14,10,1,p,0.3202,none,BL,False,1680924191.7887,none
218,2023-04-08_11h23.14.238,0408_02,14,11,2,w,0.3593,none,YR,False,1680924194.2386,none
219,2023-04-08_11h23.16.689,0408_02,14,12,2,w,0.3494,none,YL,False,1680924196.6896,none
220,2023-04-08_11h23.19.103,0408_02,14,13,1,p,0.3153,none,BR,False,1680924199.1039,none
221,2023-04-08_11h23.21.689,0408_02,14,14,2,w,0.4909,none,YL,False,1680924201.6892,none
222,2023-04-08_11h23.24.254,0408_02,14,15,2,w,0.4753,none,YL,False,1680924204.2543,none
223,2023-04-08_11h23.26.654,0408_02,14,16,2,w,0.3009,none,YL,False,1680924206.6548,none
224,2023-04-08_11h24.02.388,0408_02,15,1,2,w,0.4936,0.4911,YL,True,1680924242.3889,none
225,2023-04-08_11h24.05.021,0408_02,15,2,2,w,0.3512,0.5165,YL,True,1680924245.0215,none
226,2023-04-08_11h24.07.421,0408_02,15,3,1,p,0.3097,none,BR,False,1680924247.4218,none
227,2023-04-08_11h24.09.788,0408_02,15,4,1,p,0.2619,none,BR,False,1680924249.7885,none
228,2023-04-08_11h24.12.338,0408_02,15,5,2,w,0.3989,0.4414,YR,True,1680924252.3384,none
229,2023-04-08_11h24.14.954,0408_02,15,6,2,w,0.3614,0.5052,YL,True,1680924254.9544,none
230,2023-04-08_11h24.17.555,0408_02,15,7,2,w,0.3767,0.4948,YR,True,1680924257.5551,none
231,2023-04-08_11h24.20.137,0408_02,15,8,2,w,0.3764,0.4845,YR,True,1680924260.1379,none
232,2023-04-08_11h24.22.555,0408_02,15,9,1,p,0.3212,none,BL,False,1680924262.5552,none
233,2023-04-08_11h24.24.971,0408_02,15,10,1,p,0.312,none,BR,False,1680924264.9715,none
234,2023-04-08_11h24.27.388,0408_02,15,11,1,p,0.3275,none,BL,False,1680924267.3882,none
235,2023-04-08_11h24.29.838,0408_02,15,12,1,p,0.3507,none,BL,False,1680924269.8388,none
236,2023-04-08_11h24.32.255,0408_02,15,13,1,p,0.3172,none,BL,False,1680924272.2551,none
237,2023-04-08_11h24.34.855,0408_02,15,14,2,w,0.4444,0.4873,YR,True,1680924274.8552,none
238,2023-04-08_11h24.37.488,0408_02,15,15,2,w,0.356,0.5227,YL,True,1680924277.488,none
239,2023-04-08_11h24.39.871,0408_02,15,16,1,p,0.2911,none,BR,False,1680924279.8713,none
240,2023-04-08_11h25.23.988,0408_02,16,1,2,w,0.3873,0.407,YR,True,1680924323.9881,none
241,2023-04-08_11h25.26.388,0408_02,16,2,1,p,0.3108,none,BR,False,1680924326.3881,none
242,2023-04-08_11h25.28.790,0408_02,16,3,1,p,0.3027,none,BR,False,1680924328.7901,none
243,2023-04-08_11h25.31.222,0408_02,16,4,1,p,0.3427,none,BL,False,1680924331.2224,none
244,2023-04-08_11h25.33.771,0408_02,16,5,2,w,0.317,0.441,YL,True,1680924333.7719,none
245,2023-04-08_11h25.36.205,0408_02,16,6,1,p,0.3342,none,BL,False,1680924336.2053,none
246,2023-04-08_11h25.38.755,0408_02,16,7,2,w,0.3662,0.4389,YR,True,1680924338.7551,none
247,2023-04-08_11h25.41.290,0408_02,16,8,2,w,0.3279,0.4147,YL,True,1680924341.2901,none
248,2023-04-08_11h25.43.739,0408_02,16,9,1,p,0.3546,none,BL,False,1680924343.739,none
249,2023-04-08_11h25.46.304,0408_02,16,10,2,w,0.3286,0.454,YR,True,1680924346.3049,none
250,2023-04-08_11h25.48.855,0408_02,16,11,2,w,0.3616,0.4292,YL,True,1680924348.8551,none
251,2023-04-08_11h25.51.305,0408_02,16,12,1,p,0.3562,none,BR,False,1680924351.3052,none
252,2023-04-08_11h25.53.772,0408_02,16,13,1,p,0.3619,none,BR,False,1680924353.7726,none
253,2023-04-08_11h25.56.204,0408_02,16,14,1,p,0.3432,none,BL,False,1680924356.2043,none
254,2023-04-08_11h25.58.805,0408_02,16,15,2,w,0.2459,0.485,YR,True,1680924358.8055,none
255,2023-04-08_11h26.01.372,0408_02,16,16,2,w,0.3981,0.4574,YL,True,1680924361.3721,none
256,2023-04-08_11h26.39.539,0408_02,17,1,2,w,0.4312,0.4474,YL,True,1680924399.5399,none
257,2023-04-08_11h26.41.989,0408_02,17,2,1,p,0.3524,none,BR,False,1680924401.9895,none
258,2023-04-08_11h26.44.521,0408_02,17,3,2,w,0.3275,0.4393,YL,True,1680924404.5219,none
259,2023-04-08_11h26.46.922,0408_02,17,4,2,p,0.2974,0.4583,YR,True,1680924406.9222,Wrong_press
260,2023-04-08_11h26.49.388,0408_02,17,5,1,p,0.3763,none,BR,False,1680924409.3888,none
261,2023-04-08_11h26.51.822,0408_02,17,6,1,p,0.3424,none,BL,False,1680924411.822,none
262,2023-04-08_11h26.54.355,0408_02,17,7,2,w,0.3329,0.4158,YR,True,1680924414.3559,none
263,2023-04-08_11h26.56.856,0408_02,17,8,1,p,0.4,none,BR,False,1680924416.856,none
264,2023-04-08_11h26.59.355,0408_02,17,9,1,p,0.3958,none,BL,False,1680924419.3553,none
265,2023-04-08_11h27.01.905,0408_02,17,10,2,w,0.3598,0.4523,YL,True,1680924421.9051,none
266,2023-04-08_11h27.04.289,0408_02,17,11,1,p,0.2902,none,BR,False,1680924424.2897,none
267,2023-04-08_11h27.06.740,0408_02,17,12,1,p,0.3547,none,BL,False,1680924426.7402,none
268,2023-04-08_11h27.09.488,0408_02,17,13,2,w,0.6472,0.4408,YL,True,1680924429.4889,none
269,2023-04-08_11h27.12.121,0408_02,17,14,2,w,0.5228,0.4752,YR,True,1680924432.1218,none
270,2023-04-08_11h27.14.638,0408_02,17,15,2,w,0.3289,0.4001,YR,True,1680924434.6388,none
271,2023-04-08_11h27.17.089,0408_02,17,16,1,p,0.3486,none,BL,False,1680924437.0897,none
272,2023-04-08_11h27.53.105,0408_02,18,1,2,w,0.3831,0.4295,YL,True,1680924473.1053,none
273,2023-04-08_11h27.55.605,0408_02,18,2,1,p,0.4095,none,BL,False,1680924475.606,none
274,2023-04-08_11h27.58.089,0408_02,18,3,1,p,0.3898,none,BL,False,1680924478.089,none
275,2023-04-08_11h28.00.489,0408_02,18,4,1,p,0.3065,none,BR,False,1680924480.4891,none
276,2023-04-08_11h28.02.904,0408_02,18,5,1,p,0.3143,none,BR,False,1680924482.905,none
277,2023-04-08_11h28.05.471,0408_02,18,6,2,w,0.4569,0.3916,YL,True,1680924485.4718,none
278,2023-04-08_11h28.08.138,0408_02,18,7,2,w,0.5563,0.3353,YR,True,1680924488.139,none
279,2023-04-08_11h28.10.523,0408_02,18,8,1,p,0.2801,none,BL,False,1680924490.5237,none
280,2023-04-08_11h28.12.938,0408_02,18,9,1,p,0.3211,none,BR,False,1680924492.9387,none
281,2023-04-08_11h28.15.422,0408_02,18,10,2,w,0.3633,0.3467,YL,True,1680924495.4224,none
282,2023-04-08_11h28.17.939,0408_02,18,11,2,w,0.413,0.3929,YR,True,1680924497.9395,none
283,2023-04-08_11h28.20.438,0408_02,18,12,2,w,0.3681,0.394,YR,True,1680924500.4389,none
284,2023-04-08_11h28.22.905,0408_02,18,13,1,p,0.3723,none,BR,False,1680924502.9058,none
285,2023-04-08_11h28.25.455,0408_02,18,14,2,w,0.3614,0.4329,YR,True,1680924505.4553,none
286,2023-04-08_11h28.27.906,0408_02,18,15,1,p,0.3556,none,BL,False,1680924507.906,none
287,2023-04-08_11h28.30.455,0408_02,18,16,2,w,0.3775,0.4435,YL,True,1680924510.4558,none
288,2023-04-08_11h29.04.489,0408_02,19,1,1,p,0.3057,none,BR,False,1680924544.4891,none
289,2023-04-08_11h29.06.890,0408_02,19,2,1,p,0.3061,none,BR,False,1680924546.8906,none
290,2023-04-08_11h29.09.322,0408_02,19,3,1,p,0.3301,none,BL,False,1680924549.3223,none
291,2023-04-08_11h29.11.806,0408_02,19,4,2,w,0.3927,none,YL,False,1680924551.8062,none
292,2023-04-08_11h29.14.155,0408_02,19,5,1,p,0.2451,none,BR,False,1680924554.1554,none
293,2023-04-08_11h29.16.622,0408_02,19,6,2,w,0.3667,none,YL,False,1680924556.6229,none
294,2023-04-08_11h29.19.022,0408_02,19,7,2,w,0.309,none,YR,False,1680924559.0228,none
295,2023-04-08_11h29.21.473,0408_02,19,8,1,p,0.3566,none,BL,False,1680924561.474,none
296,2023-04-08_11h29.23.890,0408_02,19,9,2,w,0.3148,none,YL,False,1680924563.8903,none
297,2023-04-08_11h29.26.372,0408_02,19,10,2,w,0.3778,none,YL,False,1680924566.3724,none
298,2023-04-08_11h29.28.839,0408_02,19,11,2,w,0.375,none,YR,False,1680924568.8391,none
299,2023-04-08_11h29.31.256,0408_02,19,12,1,p,0.3157,none,BL,False,1680924571.2561,none
300,2023-04-08_11h29.33.672,0408_02,19,13,1,p,0.3154,none,BL,False,1680924573.6725,none
301,2023-04-08_11h29.36.123,0408_02,19,14,1,p,0.3465,none,BR,False,1680924576.1233,none
302,2023-04-08_11h29.38.573,0408_02,19,15,2,w,0.3529,none,YR,False,1680924578.5731,none
303,2023-04-08_11h29.40.939,0408_02,19,16,2,w,0.2709,none,YR,False,1680924580.94,none
304,2023-04-08_11h30.15.639,0408_02,20,1,2,w,0.415,0.3237,YR,True,1680924615.639,none
305,2023-04-08_11h30.18.106,0408_02,20,2,2,w,0.3163,0.3462,YL,True,1680924618.1064,none
306,2023-04-08_11h30.20.572,0408_02,20,3,1,p,0.3695,none,BR,False,1680924620.5729,none
307,2023-04-08_11h30.23.189,0408_02,20,4,2,w,0.5188,0.3756,YL,True,1680924623.1894,none
308,2023-04-08_11h30.25.689,0408_02,20,5,2,w,0.3737,0.3952,YR,True,1680924625.6893,none
309,2023-04-08_11h30.28.189,0408_02,20,6,1,p,0.4098,none,BL,False,1680924628.1892,none
310,2023-04-08_11h30.30.639,0408_02,20,7,2,w,0.3421,0.3457,YL,True,1680924630.6393,none
311,2023-04-08_11h30.33.139,0408_02,20,8,1,p,0.3955,none,BR,False,1680924633.1399,none
312,2023-04-08_11h30.35.639,0408_02,20,9,2,w,0.3112,0.3824,YR,True,1680924635.6393,none
313,2023-04-08_11h30.38.223,0408_02,20,10,2,w,0.4716,0.3377,YR,True,1680924638.2235,none
314,2023-04-08_11h30.40.623,0408_02,20,11,1,p,0.3086,none,BL,False,1680924640.6231,none
315,2023-04-08_11h30.42.989,0408_02,20,12,1,p,0.2762,none,BR,False,1680924642.9897,none
316,2023-04-08_11h30.45.422,0408_02,20,13,1,p,0.3337,none,BL,False,1680924645.4228,none
317,2023-04-08_11h30.47.822,0408_02,20,14,1,p,0.2997,none,BR,False,1680924647.8238,none
318,2023-04-08_11h30.50.339,0408_02,20,15,2,w,0.4118,0.3415,YL,True,1680924650.3396,none
319,2023-04-08_11h30.52.773,0408_02,20,16,1,p,0.3279,none,BL,False,1680924652.7731,none
