,timestamp,experiment_ID,block_ID,stimulus_ID,subject,key_press,rt,fake_human_rt,trial_stim,fake_or_not,UNIX_time,wrong_type
0,2023-04-28_09h51.10.785,1,1,1,1,p,0.3946,none,BL,False,1682646670.7858,none
1,2023-04-28_09h51.13.569,1,1,2,2,w,0.6454,none,YR,False,1682646673.5697,none
2,2023-04-28_09h51.16.068,1,1,3,1,p,0.3993,none,BR,False,1682646676.0688,none
3,2023-04-28_09h51.18.653,1,1,4,2,w,0.4912,none,YR,False,1682646678.6532,none
4,2023-04-28_09h51.21.070,1,1,5,1,p,0.3162,none,BL,False,1682646681.0707,none
5,2023-04-28_09h51.23.852,1,1,6,2,w,0.6912,none,YR,False,1682646683.8529,none
6,2023-04-28_09h51.26.203,1,1,7,1,p,0.2521,none,BL,False,1682646686.2036,none
7,2023-04-28_09h51.28.753,1,1,8,2,w,0.4532,none,YL,False,1682646688.7533,none
8,2023-04-28_09h51.31.136,1,1,9,1,p,0.2801,none,BR,False,1682646691.1368,none
9,2023-04-28_09h51.33.702,1,1,10,2,w,0.4644,none,YL,False,1682646693.7024,none
10,2023-04-28_09h51.36.053,1,1,11,1,p,0.2581,none,BR,False,1682646696.0538,none
11,2023-04-28_09h51.38.586,1,1,12,2,w,0.4279,none,YR,False,1682646698.5867,none
12,2023-04-28_09h51.41.153,1,1,13,1,p,0.4626,none,BL,False,1682646701.153,none
13,2023-04-28_09h51.43.737,1,1,14,2,w,0.48,none,YL,False,1682646703.7377,none
14,2023-04-28_09h51.46.153,1,1,15,2,p,0.3207,none,YL,False,1682646706.1534,Wrong_press
15,2023-04-28_09h51.48.603,1,1,16,1,p,0.3521,none,BR,False,1682646708.6037,none
16,2023-04-28_09h52.18.019,1,2,1,1,p,0.4265,none,BL,False,1682646738.0192,none
17,2023-04-28_09h52.20.586,1,2,2,1,p,0.4768,none,BL,False,1682646740.5866,none
18,2023-04-28_09h52.23.270,1,2,3,2,w,0.5905,none,YL,False,1682646743.2703,none
19,2023-04-28_09h52.25.803,1,2,4,1,p,0.4355,none,BR,False,1682646745.8033,none
20,2023-04-28_09h52.28.286,1,2,5,1,p,0.3814,none,BL,False,1682646748.2867,none
21,2023-04-28_09h52.30.902,1,2,6,2,w,0.5146,none,YL,False,1682646750.9023,none
22,2023-04-28_09h52.33.302,1,2,7,1,p,0.2978,none,BR,False,1682646753.3026,none
23,2023-04-28_09h52.35.969,1,2,8,2,w,0.5623,none,YR,False,1682646755.9697,none
24,2023-04-28_09h52.38.570,1,2,9,1,p,0.5027,none,BR,False,1682646758.5707,none
25,2023-04-28_09h52.41.336,1,2,10,2,w,0.6636,none,YL,False,1682646761.3361,none
26,2023-04-28_09h52.44.102,1,2,11,2,w,0.6723,none,YL,False,1682646764.1022,none
27,2023-04-28_09h52.46.502,1,2,12,1,p,0.3064,none,BR,False,1682646766.5024,none
28,2023-04-28_09h52.49.386,1,2,13,2,w,0.778,none,YR,False,1682646769.3866,none
29,2023-04-28_09h52.52.169,1,2,14,2,w,0.6787,none,YR,False,1682646772.1699,none
30,2023-04-28_09h52.54.620,1,2,15,1,p,0.3515,none,BL,False,1682646774.6205,none
31,2023-04-28_09h52.57.236,1,2,16,2,w,0.5171,none,YR,False,1682646777.237,none
32,2023-04-28_09h53.34.169,1,3,1,1,p,0.3867,none,BL,False,1682646814.17,none
33,2023-04-28_09h53.36.605,1,3,2,1,p,0.3433,none,BR,False,1682646816.6051,none
34,2023-04-28_09h53.39.603,1,3,3,2,w,0.5315,0.8563,YL,True,1682646819.6032,none
35,2023-04-28_09h53.42.586,1,3,4,2,w,0.6373,0.8563,YR,True,1682646822.5868,none
36,2023-04-28_09h53.45.570,1,3,5,2,w,0.5897,0.8563,YL,True,1682646825.57,none
37,2023-04-28_09h53.48.054,1,3,6,1,p,0.3662,none,BL,False,1682646828.0543,none
38,2023-04-28_09h53.50.552,1,3,7,1,p,0.3876,none,BL,False,1682646830.5522,none
39,2023-04-28_09h53.52.936,1,3,8,1,p,0.2877,none,BL,False,1682646832.9363,none
40,2023-04-28_09h53.55.919,1,3,9,2,w,0.5756,0.8563,YL,True,1682646835.92,none
41,2023-04-28_09h53.58.902,1,3,10,2,w,0.7844,0.8563,YR,True,1682646838.9029,none
42,2023-04-28_09h54.01.654,1,3,11,1,p,0.6578,none,BR,False,1682646841.6541,none
43,2023-04-28_09h54.04.069,1,3,12,1,p,0.2986,none,BR,False,1682646844.0692,none
44,2023-04-28_09h54.07.036,1,3,13,2,w,0.4681,0.8563,YL,True,1682646847.0361,none
45,2023-04-28_09h54.09.404,1,3,14,1,p,0.2605,none,BR,False,1682646849.4041,none
46,2023-04-28_09h54.12.387,1,3,15,2,w,0.4843,0.8563,YR,True,1682646852.3871,none
47,2023-04-28_09h54.15.370,1,3,16,2,w,0.4688,0.8563,YR,True,1682646855.3703,none
48,2023-04-28_09h54.51.053,1,4,1,1,p,0.3326,none,BL,False,1682646891.0535,none
49,2023-04-28_09h54.53.787,1,4,2,2,w,0.6358,none,YL,False,1682646893.787,none
50,2023-04-28_09h54.56.137,1,4,3,1,p,0.2464,none,BR,False,1682646896.1371,none
51,2023-04-28_09h54.58.638,1,4,4,1,p,0.4081,none,BL,False,1682646898.6385,none
52,2023-04-28_09h55.01.304,1,4,5,2,w,0.5562,none,YR,False,1682646901.3041,none
53,2023-04-28_09h55.03.970,1,4,6,2,w,0.5617,none,YR,False,1682646903.9701,none
54,2023-04-28_09h55.06.653,1,4,7,2,w,0.5822,none,YL,False,1682646906.6534,none
55,2023-04-28_09h55.09.054,1,4,8,1,p,0.2995,none,BR,False,1682646909.0542,none
56,2023-04-28_09h55.11.771,1,4,9,2,w,0.6109,none,YR,False,1682646911.7711,none
57,2023-04-28_09h55.14.186,1,4,10,1,p,0.3266,none,BR,False,1682646914.1864,none
58,2023-04-28_09h55.16.703,1,4,11,2,w,0.4143,none,YL,False,1682646916.7034,none
59,2023-04-28_09h55.19.470,1,4,12,2,w,0.6656,none,YL,False,1682646919.4703,none
60,2023-04-28_09h55.22.169,1,4,13,2,w,0.6106,none,YR,False,1682646922.1698,none
61,2023-04-28_09h55.24.603,1,4,14,1,p,0.3428,none,BR,False,1682646924.6031,none
62,2023-04-28_09h55.26.971,1,4,15,1,p,0.2617,none,BL,False,1682646926.9717,none
63,2023-04-28_09h55.29.403,1,4,16,1,p,0.3184,none,BL,False,1682646929.4033,none
64,2023-04-28_09h56.04.636,1,5,1,1,p,0.2913,none,BL,False,1682646964.6366,none
65,2023-04-28_09h56.07.003,1,5,2,1,p,0.2761,none,BR,False,1682646967.0033,none
66,2023-04-28_09h56.09.420,1,5,3,1,p,0.3175,none,BR,False,1682646969.4203,none
67,2023-04-28_09h56.11.786,1,5,4,1,p,0.2687,none,BR,False,1682646971.7867,none
68,2023-04-28_09h56.14.736,1,5,5,2,w,0.462,0.8274,YL,True,1682646974.7368,none
69,2023-04-28_09h56.17.121,1,5,6,1,p,0.2879,none,BR,False,1682646977.1214,none
70,2023-04-28_09h56.19.637,1,5,7,1,p,0.4167,none,BL,False,1682646979.6371,none
71,2023-04-28_09h56.22.004,1,5,8,1,p,0.2761,none,BL,False,1682646982.004,none
72,2023-04-28_09h56.24.953,1,5,9,2,w,0.4614,0.8344,YL,True,1682646984.9539,none
73,2023-04-28_09h56.27.887,1,5,10,2,w,0.5752,0.8244,YL,True,1682646987.8875,none
74,2023-04-28_09h56.30.253,1,5,11,1,p,0.2734,none,BL,False,1682646990.2536,none
75,2023-04-28_09h56.32.737,1,5,12,2,p,0.3794,0.8343,YR,True,1682646992.7375,Wrong_press
76,2023-04-28_09h56.35.669,1,5,13,2,w,0.5759,0.8225,YR,True,1682646995.6698,none
77,2023-04-28_09h56.38.620,1,5,14,2,w,0.5149,0.8305,YL,True,1682646998.6202,none
78,2023-04-28_09h56.41.553,1,5,15,2,w,0.5566,0.821,YR,True,1682647001.554,none
79,2023-04-28_09h56.44.503,1,5,16,2,w,0.5111,0.8299,YR,True,1682647004.5037,none
80,2023-04-28_09h57.27.970,1,6,1,1,p,0.3099,none,BL,False,1682647047.9705,none
81,2023-04-28_09h57.30.387,1,6,2,1,p,0.3183,none,BR,False,1682647050.3878,none
82,2023-04-28_09h57.32.788,1,6,3,1,p,0.31,none,BL,False,1682647052.788,none
83,2023-04-28_09h57.35.154,1,6,4,1,p,0.2619,none,BR,False,1682647055.1542,none
84,2023-04-28_09h57.38.053,1,6,5,2,w,0.5349,0.7866,YR,True,1682647058.0537,none
85,2023-04-28_09h57.40.969,1,6,6,2,w,0.6193,0.8011,YR,True,1682647060.97,none
86,2023-04-28_09h57.43.887,1,6,7,2,w,0.7182,0.8099,YR,True,1682647063.8876,none
87,2023-04-28_09h57.46.387,1,6,8,1,p,0.4099,none,BL,False,1682647066.3872,none
88,2023-04-28_09h57.48.870,1,6,9,1,p,0.3897,none,BR,False,1682647068.8701,none
89,2023-04-28_09h57.51.788,1,6,10,2,w,0.7542,0.803,YL,True,1682647071.788,none
90,2023-04-28_09h57.54.703,1,6,11,2,w,0.526,0.8122,YL,True,1682647074.7039,none
91,2023-04-28_09h57.57.620,1,6,12,2,w,0.4489,0.794,YL,True,1682647077.6202,none
92,2023-04-28_09h58.00.004,1,6,13,1,p,0.284,none,BR,False,1682647080.0046,none
93,2023-04-28_09h58.02.903,1,6,14,2,w,0.485,0.7863,YR,True,1682647082.9038,none
94,2023-04-28_09h58.05.486,1,6,15,1,p,0.4808,none,BL,False,1682647085.4866,none
95,2023-04-28_09h58.08.386,1,6,16,2,w,0.4739,0.7938,YL,True,1682647088.387,none
96,2023-04-28_09h58.41.537,1,7,1,1,p,0.2535,none,BL,False,1682647121.5378,none
97,2023-04-28_09h58.44.437,1,7,2,2,w,0.4957,0.7828,YR,True,1682647124.4372,none
98,2023-04-28_09h58.47.336,1,7,3,2,w,0.4918,0.7884,YR,True,1682647127.3368,none
99,2023-04-28_09h58.50.204,1,7,4,2,w,0.415,0.7519,YL,True,1682647130.2047,none
100,2023-04-28_09h58.52.620,1,7,5,1,p,0.3162,none,BR,False,1682647132.6205,none
101,2023-04-28_09h58.55.171,1,7,6,1,p,0.4521,none,BL,False,1682647135.1717,none
102,2023-04-28_09h58.57.570,1,7,7,1,p,0.3027,none,BR,False,1682647137.5709,none
103,2023-04-28_09h59.00.004,1,7,8,1,p,0.3422,none,BR,False,1682647140.0045,none
104,2023-04-28_09h59.02.887,1,7,9,2,w,0.4126,0.7605,YL,True,1682647142.8876,none
105,2023-04-28_09h59.05.770,1,7,10,2,w,0.4731,0.7756,YR,True,1682647145.7706,none
106,2023-04-28_09h59.08.186,1,7,11,1,p,0.3181,none,BL,False,1682647148.1867,none
107,2023-04-28_09h59.11.071,1,7,12,2,w,0.502,0.7723,YL,True,1682647151.0711,none
108,2023-04-28_09h59.13.503,1,7,13,1,p,0.338,none,BR,False,1682647153.5039,none
109,2023-04-28_09h59.16.371,1,7,14,2,w,0.4408,0.7565,YL,True,1682647156.3716,none
110,2023-04-28_09h59.19.254,1,7,15,2,w,0.5658,0.7726,YR,True,1682647159.2544,none
111,2023-04-28_09h59.21.604,1,7,16,1,p,0.2598,none,BL,False,1682647161.6043,none
112,2023-04-28_09h59.51.921,1,8,1,1,p,0.3205,none,BR,False,1682647191.9217,none
113,2023-04-28_09h59.54.770,1,8,2,2,w,0.3922,0.7461,YR,True,1682647194.7707,none
114,2023-04-28_09h59.57.171,1,8,3,1,p,0.3021,none,BR,False,1682647197.1717,none
115,2023-04-28_10h00.00.053,1,8,4,2,w,0.5499,0.7658,YL,True,1682647200.054,none
116,2023-04-28_10h00.02.621,1,8,5,1,p,0.4662,none,BL,False,1682647202.6212,none
117,2023-04-28_10h00.05.504,1,8,6,2,w,0.4284,0.7682,YR,True,1682647205.5041,none
118,2023-04-28_10h00.07.921,1,8,7,1,p,0.3203,none,BL,False,1682647207.9212,none
119,2023-04-28_10h00.10.355,1,8,8,1,p,0.3283,none,BR,False,1682647210.3552,none
120,2023-04-28_10h00.13.204,1,8,9,2,w,0.5184,0.7291,YL,True,1682647213.2045,none
121,2023-04-28_10h00.15.720,1,8,10,1,p,0.4121,none,BL,False,1682647215.7218,none
122,2023-04-28_10h00.18.187,1,8,11,1,p,0.3679,none,BR,False,1682647218.1878,none
123,2023-04-28_10h00.21.021,1,8,12,2,w,0.6448,0.7188,YL,True,1682647221.0212,none
124,2023-04-28_10h00.23.854,1,8,13,2,w,0.4915,0.718,YL,True,1682647223.8541,none
125,2023-04-28_10h00.26.288,1,8,14,1,p,0.3389,none,BL,False,1682647226.289,none
126,2023-04-28_10h00.29.155,1,8,15,2,w,0.4573,0.7609,YR,True,1682647229.155,none
127,2023-04-28_10h00.32.020,1,8,16,2,w,0.5904,0.7558,YR,True,1682647232.0204,none
128,2023-04-28_10h01.08.121,1,9,1,2,w,0.474,0.7368,YR,True,1682647268.1211,none
129,2023-04-28_10h01.10.521,1,9,2,1,p,0.2958,none,BL,False,1682647270.5215,none
130,2023-04-28_10h01.13.321,1,9,3,2,w,0.5271,0.6905,YL,True,1682647273.3214,none
131,2023-04-28_10h01.15.754,1,9,4,1,p,0.3288,none,BL,False,1682647275.7542,none
132,2023-04-28_10h01.18.621,1,9,5,2,w,0.3665,0.7458,YR,True,1682647278.6215,none
133,2023-04-28_10h01.21.470,1,9,6,2,w,0.4677,0.7396,YR,True,1682647281.4708,none
134,2023-04-28_10h01.24.271,1,9,7,2,w,0.5137,0.6824,YL,True,1682647284.2714,none
135,2023-04-28_10h01.26.738,1,9,8,1,p,0.362,none,BR,False,1682647286.7383,none
136,2023-04-28_10h01.29.120,1,9,9,1,p,0.2877,none,BL,False,1682647289.1218,none
137,2023-04-28_10h01.31.920,1,9,10,2,w,0.5677,0.6878,YL,True,1682647291.9208,none
138,2023-04-28_10h01.34.770,1,9,11,2,w,0.6233,0.7439,YL,True,1682647294.7703,none
139,2023-04-28_10h01.37.255,1,9,12,1,p,0.3821,none,BR,False,1682647297.2552,none
140,2023-04-28_10h01.39.805,1,9,13,1,p,0.4503,none,BL,False,1682647299.8055,none
141,2023-04-28_10h01.42.153,1,9,14,2,p,0.2518,0.7461,YR,True,1682647302.1537,Wrong_press
142,2023-04-28_10h01.44.537,1,9,15,1,p,0.2862,none,BR,False,1682647304.5371,none
143,2023-04-28_10h01.46.954,1,9,16,1,p,0.3111,none,BR,False,1682647306.9545,none
144,2023-04-28_10h02.21.554,1,10,1,2,w,0.5916,0.7255,YL,True,1682647341.5549,none
145,2023-04-28_10h02.23.921,1,10,2,1,p,0.2616,none,BR,False,1682647343.9214,none
146,2023-04-28_10h02.26.354,1,10,3,1,p,0.3354,none,BL,False,1682647346.3547,none
147,2023-04-28_10h02.28.738,1,10,4,1,p,0.286,none,BL,False,1682647348.7381,none
148,2023-04-28_10h02.31.504,1,10,5,2,w,0.4629,0.6482,YR,True,1682647351.5049,none
149,2023-04-28_10h02.33.887,1,10,6,1,p,0.2869,none,BR,False,1682647353.8875,none
150,2023-04-28_10h02.36.254,1,10,7,1,p,0.2646,none,BL,False,1682647356.2549,none
151,2023-04-28_10h02.39.021,1,10,8,2,w,0.4823,0.6475,YL,True,1682647359.0217,none
152,2023-04-28_10h02.41.787,1,10,9,2,w,0.6519,0.6497,YL,True,1682647361.7875,none
153,2023-04-28_10h02.44.154,1,10,10,1,p,0.2766,none,BR,False,1682647364.1543,none
154,2023-04-28_10h02.46.922,1,10,11,2,w,0.422,0.6538,YR,True,1682647366.9221,none
155,2023-04-28_10h02.49.354,1,10,12,1,p,0.3351,none,BL,False,1682647369.3547,none
156,2023-04-28_10h02.51.822,1,10,13,1,p,0.3739,none,BR,False,1682647371.8221,none
157,2023-04-28_10h02.54.638,1,10,14,2,w,0.4514,0.7007,YL,True,1682647374.6381,none
158,2023-04-28_10h02.57.421,1,10,15,2,w,0.5948,0.6639,YR,True,1682647377.4215,none
159,2023-04-28_10h03.00.188,1,10,16,2,w,0.5381,0.6512,YR,True,1682647380.1883,none
160,2023-04-28_10h03.40.521,1,11,1,2,w,0.4621,none,YR,False,1682647420.5216,none
161,2023-04-28_10h03.43.238,1,11,2,2,w,0.6236,none,YR,False,1682647423.239,none
162,2023-04-28_10h03.45.605,1,11,3,1,p,0.2577,none,BL,False,1682647425.6053,none
163,2023-04-28_10h03.48.021,1,11,4,1,p,0.3237,none,BR,False,1682647428.0224,none
164,2023-04-28_10h03.50.654,1,11,5,2,w,0.539,none,YR,False,1682647430.6547,none
165,2023-04-28_10h03.53.322,1,11,6,2,w,0.5622,none,YL,False,1682647433.3221,none
166,2023-04-28_10h03.55.772,1,11,7,1,p,0.3347,none,BR,False,1682647435.7726,none
167,2023-04-28_10h03.58.405,1,11,8,2,w,0.5411,none,YL,False,1682647438.4052,none
168,2023-04-28_10h04.00.837,1,11,9,1,p,0.3401,none,BR,False,1682647440.8379,none
169,2023-04-28_10h04.03.371,1,11,10,1,p,0.4268,none,BL,False,1682647443.3711,none
170,2023-04-28_10h04.05.972,1,11,11,2,w,0.5013,none,YR,False,1682647445.972,none
171,2023-04-28_10h04.08.404,1,11,12,1,p,0.333,none,BL,False,1682647448.4045,none
172,2023-04-28_10h04.10.905,1,11,13,2,w,0.4037,none,YL,False,1682647450.9057,none
173,2023-04-28_10h04.13.405,1,11,14,2,w,0.3997,none,YL,False,1682647453.4058,none
174,2023-04-28_10h04.15.838,1,11,15,1,p,0.3399,none,BL,False,1682647455.8385,none
175,2023-04-28_10h04.18.355,1,11,16,1,p,0.4271,none,BR,False,1682647458.3552,none
176,2023-04-28_10h04.55.921,1,12,1,1,p,0.2698,none,BR,False,1682647495.9214,none
177,2023-04-28_10h04.58.287,1,12,2,1,p,0.2713,none,BR,False,1682647498.2879,none
178,2023-04-28_10h05.00.639,1,12,3,1,p,0.2484,none,BL,False,1682647500.639,none
179,2023-04-28_10h05.03.037,1,12,4,2,p,0.2989,0.6308,YL,True,1682647503.0379,Wrong_press
180,2023-04-28_10h05.05.972,1,12,5,2,w,0.8335,0.6747,YR,True,1682647505.9721,none
181,2023-04-28_10h05.08.738,1,12,6,2,w,0.5335,0.6507,YR,True,1682647508.7385,none
182,2023-04-28_10h05.11.521,1,12,7,2,w,0.5507,0.6708,YL,True,1682647511.5211,none
183,2023-04-28_10h05.14.522,1,12,8,1,p,0.8951,none,BR,False,1682647514.5226,none
184,2023-04-28_10h05.17.071,1,12,9,1,p,0.4468,none,BL,False,1682647517.072,none
185,2023-04-28_10h05.19.505,1,12,10,1,p,0.337,none,BR,False,1682647519.5054,none
186,2023-04-28_10h05.21.922,1,12,11,2,p,0.3196,0.6919,YL,True,1682647521.9224,Wrong_press
187,2023-04-28_10h05.24.355,1,12,12,1,p,0.3432,none,BL,False,1682647524.3559,none
188,2023-04-28_10h05.27.222,1,12,13,2,w,0.7433,0.6945,YR,True,1682647527.2224,none
189,2023-04-28_10h05.29.955,1,12,14,2,w,0.4589,0.632,YR,True,1682647529.9553,none
190,2023-04-28_10h05.32.722,1,12,15,2,w,0.4375,0.6552,YL,True,1682647532.722,none
191,2023-04-28_10h05.35.190,1,12,16,1,p,0.3752,none,BL,False,1682647535.1902,none
192,2023-04-28_10h06.07.988,1,13,1,2,w,0.4675,0.6705,YL,True,1682647567.9887,none
193,2023-04-28_10h06.10.389,1,13,2,1,p,0.3075,none,BR,False,1682647570.3902,none
194,2023-04-28_10h06.13.122,1,13,3,2,w,0.4599,0.6302,YR,True,1682647573.1221,none
195,2023-04-28_10h06.15.888,1,13,4,2,w,0.5029,0.6537,YL,True,1682647575.8885,none
196,2023-04-28_10h06.18.388,1,13,5,1,p,0.4004,none,BL,False,1682647578.3889,none
197,2023-04-28_10h06.21.071,1,13,6,2,w,0.5641,0.5724,YL,True,1682647581.0719,none
198,2023-04-28_10h06.23.506,1,13,7,1,p,0.3286,none,BL,False,1682647583.5061,none
199,2023-04-28_10h06.25.870,1,13,8,1,p,0.271,none,BL,False,1682647585.8709,none
200,2023-04-28_10h06.28.222,1,13,9,1,p,0.2492,none,BR,False,1682647588.2225,none
201,2023-04-28_10h06.30.672,1,13,10,1,p,0.3471,none,BR,False,1682647590.6725,none
202,2023-04-28_10h06.33.422,1,13,11,2,w,0.449,0.6308,YR,True,1682647593.422,none
203,2023-04-28_10h06.36.189,1,13,12,2,w,0.4913,0.6618,YL,True,1682647596.189,none
204,2023-04-28_10h06.38.605,1,13,13,1,p,0.3233,none,BR,False,1682647598.605,none
205,2023-04-28_10h06.41.321,1,13,14,2,w,0.4516,0.6056,YR,True,1682647601.3218,none
206,2023-04-28_10h06.44.121,1,13,15,2,w,0.6304,0.678,YR,True,1682647604.1217,none
207,2023-04-28_10h06.46.639,1,13,16,1,p,0.4224,none,BL,False,1682647606.6399,none
208,2023-04-28_10h07.22.422,1,14,1,2,w,0.4126,0.5493,YL,True,1682647642.4226,none
209,2023-04-28_10h07.24.838,1,14,2,1,p,0.3147,none,BL,False,1682647644.8388,none
210,2023-04-28_10h07.27.204,1,14,3,1,p,0.2663,none,BR,False,1682647647.2057,none
211,2023-04-28_10h07.29.938,1,14,4,2,w,0.5791,0.6062,YL,True,1682647649.9383,none
212,2023-04-28_10h07.32.604,1,14,5,2,w,0.4856,0.5631,YR,True,1682647652.6049,none
213,2023-04-28_10h07.35.272,1,14,6,2,w,0.5586,0.537,YL,True,1682647655.2727,none
214,2023-04-28_10h07.37.639,1,14,7,1,p,0.2638,none,BR,False,1682647657.6395,none
215,2023-04-28_10h07.40.071,1,14,8,1,p,0.3379,none,BR,False,1682647660.0724,none
216,2023-04-28_10h07.42.739,1,14,9,2,w,0.4967,0.5544,YR,True,1682647662.7393,none
217,2023-04-28_10h07.45.422,1,14,10,2,w,0.5737,0.5584,YR,True,1682647665.4223,none
218,2023-04-28_10h07.47.956,1,14,11,1,p,0.4349,none,BR,False,1682647667.9565,none
219,2023-04-28_10h07.50.372,1,14,12,1,p,0.3,none,BL,False,1682647670.3721,none
220,2023-04-28_10h07.52.854,1,14,13,1,p,0.3805,none,BL,False,1682647672.8546,none
221,2023-04-28_10h07.55.572,1,14,14,2,w,0.5215,0.5983,YR,True,1682647675.5725,none
222,2023-04-28_10h07.58.289,1,14,15,2,w,0.5487,0.6028,YL,True,1682647678.2898,none
223,2023-04-28_10h08.00.738,1,14,16,1,p,0.3597,none,BL,False,1682647680.7386,none
224,2023-04-28_10h08.35.372,1,15,1,1,p,0.2753,none,BR,False,1682647715.3727,none
225,2023-04-28_10h08.37.988,1,15,2,2,w,0.4202,0.5135,YR,True,1682647717.9886,none
226,2023-04-28_10h08.40.723,1,15,3,2,w,0.4757,0.6317,YL,True,1682647720.7236,none
227,2023-04-28_10h08.43.189,1,15,4,1,p,0.3667,none,BR,False,1682647723.1897,none
228,2023-04-28_10h08.45.822,1,15,5,2,w,0.4272,0.5071,YL,True,1682647725.8225,none
229,2023-04-28_10h08.48.489,1,15,6,2,w,0.4417,0.5673,YR,True,1682647728.4897,none
230,2023-04-28_10h08.51.222,1,15,7,2,w,0.4314,0.6185,YL,True,1682647731.2227,none
231,2023-04-28_10h08.53.639,1,15,8,1,p,0.3143,none,BL,False,1682647733.6394,none
232,2023-04-28_10h08.56.372,1,15,9,2,w,0.6202,0.5119,YR,True,1682647736.3721,none
233,2023-04-28_10h08.58.772,1,15,10,1,p,0.3006,none,BR,False,1682647738.7727,none
234,2023-04-28_10h09.01.172,1,15,11,1,p,0.3087,none,BL,False,1682647741.1723,none
235,2023-04-28_10h09.03.822,1,15,12,2,w,0.4842,0.5448,YL,True,1682647743.8227,none
236,2023-04-28_10h09.06.222,1,15,13,1,p,0.306,none,BL,False,1682647746.2223,none
237,2023-04-28_10h09.08.957,1,15,14,2,w,0.4257,0.621,YR,True,1682647748.9575,none
238,2023-04-28_10h09.11.423,1,15,15,1,p,0.3484,none,BR,False,1682647751.4233,none
239,2023-04-28_10h09.13.939,1,15,16,1,p,0.418,none,BL,False,1682647753.9393,none
240,2023-04-28_10h09.58.606,1,16,1,1,p,0.3322,none,BR,False,1682647798.6067,none
241,2023-04-28_10h10.00.989,1,16,2,1,p,0.2825,none,BR,False,1682647800.9896,none
242,2023-04-28_10h10.03.373,1,16,3,1,p,0.2912,none,BL,False,1682647803.3735,none
243,2023-04-28_10h10.06.055,1,16,4,2,w,0.5722,0.5595,YR,True,1682647806.0557,none
244,2023-04-28_10h10.08.689,1,16,5,2,w,0.5255,0.4723,YR,True,1682647808.689,none
245,2023-04-28_10h10.11.073,1,16,6,1,p,0.2793,none,BL,False,1682647811.0734,none
246,2023-04-28_10h10.13.490,1,16,7,1,p,0.3201,none,BR,False,1682647813.4901,none
247,2023-04-28_10h10.16.105,1,16,8,2,w,0.4876,0.5105,YR,True,1682647816.1055,none
248,2023-04-28_10h10.18.722,1,16,9,2,w,0.5028,0.5072,YL,True,1682647818.7222,none
249,2023-04-28_10h10.21.338,1,16,10,2,w,0.5097,0.467,YR,True,1682647821.3388,none
250,2023-04-28_10h10.24.123,1,16,11,1,p,0.6857,none,BR,False,1682647824.1232,none
251,2023-04-28_10h10.26.755,1,16,12,2,w,0.3666,0.5138,YL,True,1682647826.7555,none
252,2023-04-28_10h10.29.155,1,16,13,1,p,0.3089,none,BL,False,1682647829.1558,none
253,2023-04-28_10h10.31.690,1,16,14,1,p,0.4371,none,BL,False,1682647831.6905,none
254,2023-04-28_10h10.34.072,1,16,15,2,p,0.2794,0.5755,YL,True,1682647834.0727,Wrong_press
255,2023-04-28_10h10.36.889,1,16,16,2,w,0.696,0.4675,YL,True,1682647836.8893,none
256,2023-04-28_10h11.07.755,1,17,1,2,w,0.486,0.4435,YL,True,1682647867.7564,none
257,2023-04-28_10h11.10.439,1,17,2,2,w,0.4529,0.5761,YL,True,1682647870.4395,none
258,2023-04-28_10h11.12.840,1,17,3,1,p,0.3051,none,BR,False,1682647872.8402,none
259,2023-04-28_10h11.15.473,1,17,4,2,w,0.5054,0.5077,YR,True,1682647875.473,none
260,2023-04-28_10h11.17.889,1,17,5,1,p,0.319,none,BR,False,1682647877.8898,none
261,2023-04-28_10h11.20.323,1,17,6,1,p,0.3353,none,BL,False,1682647880.3233,none
262,2023-04-28_10h11.22.672,1,17,7,1,p,0.2539,none,BL,False,1682647882.6723,none
263,2023-04-28_10h11.25.055,1,17,8,1,p,0.2808,none,BR,False,1682647885.0558,none
264,2023-04-28_10h11.27.723,1,17,9,2,w,0.4806,0.5456,YL,True,1682647887.7232,none
265,2023-04-28_10h11.30.323,1,17,10,2,w,0.4728,0.4621,YR,True,1682647890.3231,none
266,2023-04-28_10h11.32.906,1,17,11,2,w,0.4726,0.4534,YL,True,1682647892.9061,none
267,2023-04-28_10h11.35.355,1,17,12,1,p,0.3585,none,BL,False,1682647895.3555,none
268,2023-04-28_10h11.38.223,1,17,13,2,w,0.7548,0.5826,YR,True,1682647898.2231,none
269,2023-04-28_10h11.40.855,1,17,14,2,w,0.4576,0.533,YR,True,1682647900.8555,none
270,2023-04-28_10h11.43.239,1,17,15,1,p,0.2887,none,BL,False,1682647903.2395,none
271,2023-04-28_10h11.45.606,1,17,16,1,p,0.2731,none,BR,False,1682647905.6065,none
272,2023-04-28_10h12.18.956,1,18,1,2,w,0.5173,none,YL,False,1682647938.9569,none
273,2023-04-28_10h12.21.523,1,18,2,2,w,0.4767,none,YR,False,1682647941.5235,none
274,2023-04-28_10h12.24.055,1,18,3,2,w,0.4299,none,YR,False,1682647944.056,none
275,2023-04-28_10h12.26.490,1,18,4,1,p,0.3287,none,BL,False,1682647946.4903,none
276,2023-04-28_10h12.29.006,1,18,5,2,w,0.4234,none,YL,False,1682647949.0069,none
277,2023-04-28_10h12.31.457,1,18,6,1,p,0.3464,none,BL,False,1682647951.4573,none
278,2023-04-28_10h12.33.940,1,18,7,1,p,0.3841,none,BL,False,1682647953.9405,none
279,2023-04-28_10h12.36.373,1,18,8,1,p,0.3334,none,BR,False,1682647956.3735,none
280,2023-04-28_10h12.38.773,1,18,9,2,p,0.2997,none,YR,False,1682647958.7736,Wrong_press
281,2023-04-28_10h12.41.123,1,18,10,1,p,0.26,none,BL,False,1682647961.1236,none
282,2023-04-28_10h12.43.639,1,18,11,2,w,0.4134,none,YL,False,1682647963.6394,none
283,2023-04-28_10h12.46.005,1,18,12,1,p,0.2726,none,BR,False,1682647966.0059,none
284,2023-04-28_10h12.48.406,1,18,13,1,p,0.2984,none,BR,False,1682647968.4061,none
285,2023-04-28_10h12.50.872,1,18,14,2,w,0.3624,none,YL,False,1682647970.8728,none
286,2023-04-28_10h12.53.406,1,18,15,2,w,0.44,none,YR,False,1682647973.4066,none
287,2023-04-28_10h12.55.790,1,18,16,1,p,0.2824,none,BR,False,1682647975.7903,none
288,2023-04-28_10h13.26.122,1,19,1,1,p,0.2769,none,BL,False,1682648006.1222,none
289,2023-04-28_10h13.28.673,1,19,2,2,w,0.438,0.4089,YL,True,1682648008.6734,none
290,2023-04-28_10h13.31.373,1,19,3,2,w,0.5922,0.4095,YR,True,1682648011.3734,none
291,2023-04-28_10h13.33.739,1,19,4,1,p,0.2675,none,BR,False,1682648013.7395,none
292,2023-04-28_10h13.36.273,1,19,5,1,p,0.429,none,BL,False,1682648016.273,none
293,2023-04-28_10h13.38.890,1,19,6,2,w,0.4911,0.4463,YL,True,1682648018.8907,none
294,2023-04-28_10h13.41.657,1,19,7,2,w,0.6403,0.4441,YR,True,1682648021.6573,none
295,2023-04-28_10h13.44.689,1,19,8,2,w,0.9213,0.485,YL,True,1682648024.6898,none
296,2023-04-28_10h13.47.289,1,19,9,2,w,0.4822,0.4799,YL,True,1682648027.2899,none
297,2023-04-28_10h13.49.740,1,19,10,1,p,0.3509,none,BL,False,1682648029.7403,none
298,2023-04-28_10h13.52.223,1,19,11,1,p,0.3889,none,BR,False,1682648032.2232,none
299,2023-04-28_10h13.54.640,1,19,12,1,p,0.3218,none,BR,False,1682648034.6401,none
300,2023-04-28_10h13.57.006,1,19,13,1,p,0.2727,none,BL,False,1682648037.0068,none
301,2023-04-28_10h13.59.373,1,19,14,1,p,0.2652,none,BR,False,1682648039.3732,none
302,2023-04-28_10h14.01.973,1,19,15,2,w,0.4434,0.5001,YR,True,1682648041.9733,none
303,2023-04-28_10h14.04.622,1,19,16,2,w,0.4597,0.5505,YR,True,1682648044.6227,none
304,2023-04-28_10h14.37.940,1,20,1,2,w,0.4092,0.4264,YR,True,1682648077.9403,none
305,2023-04-28_10h14.40.606,1,20,2,2,w,0.4687,0.5494,YL,True,1682648080.6066,none
306,2023-04-28_10h14.43.239,1,20,3,2,w,0.3698,0.5153,YL,True,1682648083.2394,none
307,2023-04-28_10h14.45.739,1,20,4,2,w,0.3606,0.3791,YR,True,1682648085.7399,none
308,2023-04-28_10h14.48.356,1,20,5,2,w,0.1247,0.5109,YR,True,1682648088.3563,none
309,2023-04-28_10h14.50.873,1,20,6,1,p,0.4202,none,BR,False,1682648090.874,none
310,2023-04-28_10h14.53.340,1,20,7,1,p,0.3672,none,BR,False,1682648093.3403,none
311,2023-04-28_10h14.56.373,1,20,8,2,w,0.9215,0.4891,YL,True,1682648096.3733,none
312,2023-04-28_10h14.58.806,1,20,9,1,p,0.3392,none,BL,False,1682648098.8069,none
313,2023-04-28_10h15.01.189,1,20,10,1,p,0.2827,none,BR,False,1682648101.1893,none
314,2023-04-28_10h15.03.674,1,20,11,1,p,0.3788,none,BL,False,1682648103.6742,none
315,2023-04-28_10h15.06.457,1,20,12,2,w,0.676,0.4393,YR,True,1682648106.4571,none
316,2023-04-28_10h15.08.873,1,20,13,1,p,0.3116,none,BL,False,1682648108.8734,none
317,2023-04-28_10h15.11.306,1,20,14,1,p,0.3356,none,BL,False,1682648111.3067,none
318,2023-04-28_10h15.14.457,1,20,15,2,w,1.0299,0.4173,YL,True,1682648114.457,none
319,2023-04-28_10h15.16.807,1,20,16,1,p,0.2561,none,BR,False,1682648116.808,none
