,timestamp,experiment_ID,block_ID,stimulus_ID,subject,key_press,rt,fake_human_rt,trial_stim,fake_or_not,UNIX_time,wrong_type
0,2023-04-06_11h17.24.547,0406_02,1,1,2,w,0.3774,none,YR,False,1680751044.5474,none
1,2023-04-06_11h17.27.047,0406_02,1,2,1,p,0.3988,none,BR,False,1680751047.0476,none
2,2023-04-06_11h17.29.580,0406_02,1,3,1,p,0.4426,none,BL,False,1680751049.5803,none
3,2023-04-06_11h17.32.031,0406_02,1,4,2,w,0.3493,none,YL,False,1680751052.0312,none
4,2023-04-06_11h17.34.531,0406_02,1,5,2,w,0.3954,none,YL,False,1680751054.5319,none
5,2023-04-06_11h17.37.013,0406_02,1,6,2,w,0.3738,none,YR,False,1680751057.0139,none
6,2023-04-06_11h17.39.446,0406_02,1,7,1,p,0.3319,none,BR,False,1680751059.4469,none
7,2023-04-06_11h17.41.814,0406_02,1,8,2,w,0.2742,none,YL,False,1680751061.8148,none
8,2023-04-06_11h17.44.297,0406_02,1,9,1,p,0.3876,none,BL,False,1680751064.2971,none
9,2023-04-06_11h17.46.864,0406_02,1,10,1,p,0.4646,none,BL,False,1680751066.8652,none
10,2023-04-06_11h17.49.314,0406_02,1,11,1,p,0.3534,none,BR,False,1680751069.3145,none
11,2023-04-06_11h17.51.714,0406_02,1,12,2,w,0.3039,none,YL,False,1680751071.7148,none
12,2023-04-06_11h17.54.214,0406_02,1,13,1,p,0.4081,none,BL,False,1680751074.215,none
13,2023-04-06_11h17.56.680,0406_02,1,14,1,p,0.3638,none,BR,False,1680751076.6807,none
14,2023-04-06_11h17.59.148,0406_02,1,15,2,w,0.3694,none,YR,False,1680751079.1486,none
15,2023-04-06_11h18.01.614,0406_02,1,16,2,w,0.3661,none,YR,False,1680751081.6149,none
16,2023-04-06_11h18.35.815,0406_02,2,1,1,p,0.4491,none,BL,False,1680751115.8152,none
17,2023-04-06_11h18.38.248,0406_02,2,2,2,w,0.3316,none,YR,False,1680751118.2489,none
18,2023-04-06_11h18.40.782,0406_02,2,3,1,p,0.4177,none,BL,False,1680751120.7824,none
19,2023-04-06_11h18.43.297,0406_02,2,4,1,p,0.3963,none,BR,False,1680751123.2971,none
20,2023-04-06_11h18.45.799,0406_02,2,5,1,p,0.408,none,BR,False,1680751125.7995,none
21,2023-04-06_11h18.48.230,0406_02,2,6,1,p,0.3405,none,BL,False,1680751128.2308,none
22,2023-04-06_11h18.50.698,0406_02,2,7,2,w,0.3629,none,YL,False,1680751130.6993,none
23,2023-04-06_11h18.53.347,0406_02,2,8,1,p,0.5447,none,BR,False,1680751133.3477,none
24,2023-04-06_11h18.55.815,0406_02,2,9,2,w,0.3665,none,YR,False,1680751135.8151,none
25,2023-04-06_11h18.58.498,0406_02,2,10,2,w,0.5783,none,YR,False,1680751138.4985,none
26,2023-04-06_11h19.00.949,0406_02,2,11,2,w,0.3441,none,YL,False,1680751140.9492,none
27,2023-04-06_11h19.03.414,0406_02,2,12,1,p,0.3498,none,BR,False,1680751143.4145,none
28,2023-04-06_11h19.05.780,0406_02,2,13,2,w,0.2751,none,YL,False,1680751145.7809,none
29,2023-04-06_11h19.08.198,0406_02,2,14,2,w,0.3249,none,YR,False,1680751148.1982,none
30,2023-04-06_11h19.10.599,0406_02,2,15,2,w,0.3003,none,YL,False,1680751150.5991,none
31,2023-04-06_11h19.13.164,0406_02,2,16,1,p,0.4504,none,BL,False,1680751153.1642,none
32,2023-04-06_11h19.46.498,0406_02,3,1,1,p,0.4539,none,BL,False,1680751186.4984,none
33,2023-04-06_11h19.49.032,0406_02,3,2,1,p,0.4394,none,BR,False,1680751189.0321,none
34,2023-04-06_11h19.51.581,0406_02,3,3,1,p,0.4502,none,BL,False,1680751191.5812,none
35,2023-04-06_11h19.54.447,0406_02,3,4,2,w,0.3728,0.765,YL,True,1680751194.4475,none
36,2023-04-06_11h19.56.948,0406_02,3,5,1,p,0.4019,none,BR,False,1680751196.9482,none
37,2023-04-06_11h19.59.814,0406_02,3,6,2,w,0.3737,0.765,YR,True,1680751199.8145,none
38,2023-04-06_11h20.02.281,0406_02,3,7,1,p,0.3701,none,BL,False,1680751202.2817,none
39,2023-04-06_11h20.05.165,0406_02,3,8,2,w,0.2969,0.765,YR,True,1680751205.1651,none
40,2023-04-06_11h20.08.031,0406_02,3,9,2,w,0.3421,0.765,YL,True,1680751208.031,none
41,2023-04-06_11h20.10.548,0406_02,3,10,1,p,0.4189,none,BR,False,1680751210.548,none
42,2023-04-06_11h20.13.414,0406_02,3,11,2,w,0.3419,0.765,YR,True,1680751213.4146,none
43,2023-04-06_11h20.16.298,0406_02,3,12,2,w,0.2903,0.765,YL,True,1680751216.2985,none
44,2023-04-06_11h20.18.831,0406_02,3,13,1,p,0.4319,none,BR,False,1680751218.8318,none
45,2023-04-06_11h20.21.731,0406_02,3,14,1,p,0.7949,none,BL,False,1680751221.7317,none
46,2023-04-06_11h20.24.615,0406_02,3,15,2,w,0.3505,0.765,YL,True,1680751224.6152,none
47,2023-04-06_11h20.27.481,0406_02,3,16,2,w,0.5232,0.765,YR,True,1680751227.4816,none
48,2023-04-06_11h21.00.348,0406_02,4,1,1,p,0.3515,none,BL,False,1680751260.3486,none
49,2023-04-06_11h21.03.198,0406_02,4,2,2,w,0.4126,0.7353,YL,True,1680751263.1982,none
50,2023-04-06_11h21.06.047,0406_02,4,3,2,w,0.3489,0.7325,YL,True,1680751266.0472,none
51,2023-04-06_11h21.08.498,0406_02,4,4,1,p,0.3535,none,BR,False,1680751268.4984,none
52,2023-04-06_11h21.10.998,0406_02,4,5,1,p,0.4073,none,BR,False,1680751270.9984,none
53,2023-04-06_11h21.13.431,0406_02,4,6,1,p,0.3317,none,BR,False,1680751273.4316,none
54,2023-04-06_11h21.16.297,0406_02,4,7,2,w,0.3461,0.7396,YR,True,1680751276.2978,none
55,2023-04-06_11h21.19.148,0406_02,4,8,2,w,0.3196,0.7403,YR,True,1680751279.1481,none
56,2023-04-06_11h21.21.998,0406_02,4,9,2,w,0.3416,0.7372,YL,True,1680751281.9984,none
57,2023-04-06_11h21.24.432,0406_02,4,10,1,p,0.3314,none,BR,False,1680751284.4323,none
58,2023-04-06_11h21.27.282,0406_02,4,11,2,w,0.2662,0.7361,YL,True,1680751287.282,none
59,2023-04-06_11h21.29.848,0406_02,4,12,1,p,0.4729,none,BL,False,1680751289.8489,none
60,2023-04-06_11h21.32.331,0406_02,4,13,1,p,0.3934,none,BL,False,1680751292.3317,none
61,2023-04-06_11h21.34.782,0406_02,4,14,1,p,0.3581,none,BL,False,1680751294.782,none
62,2023-04-06_11h21.37.649,0406_02,4,15,2,w,0.3962,0.7409,YR,True,1680751297.6491,none
63,2023-04-06_11h21.40.499,0406_02,4,16,2,w,0.3042,0.7388,YR,True,1680751300.499,none
64,2023-04-06_11h22.14.048,0406_02,5,1,2,w,0.3554,none,YR,False,1680751334.0487,none
65,2023-04-06_11h22.16.515,0406_02,5,2,1,p,0.3613,none,BR,False,1680751336.5156,none
66,2023-04-06_11h22.18.965,0406_02,5,3,2,w,0.3506,none,YL,False,1680751338.9653,none
67,2023-04-06_11h22.21.449,0406_02,5,4,1,p,0.389,none,BL,False,1680751341.4493,none
68,2023-04-06_11h22.23.882,0406_02,5,5,1,p,0.3372,none,BR,False,1680751343.8825,none
69,2023-04-06_11h22.26.315,0406_02,5,6,2,w,0.3364,none,YR,False,1680751346.3153,none
70,2023-04-06_11h22.28.748,0406_02,5,7,1,p,0.334,none,BL,False,1680751348.7489,none
71,2023-04-06_11h22.31.215,0406_02,5,8,2,w,0.3653,none,YL,False,1680751351.2156,none
72,2023-04-06_11h22.33.632,0406_02,5,9,2,w,0.3227,none,YR,False,1680751353.6324,none
73,2023-04-06_11h22.36.065,0406_02,5,10,1,p,0.3379,none,BR,False,1680751356.0653,none
74,2023-04-06_11h22.38.548,0406_02,5,11,1,p,0.3848,none,BL,False,1680751358.5489,none
75,2023-04-06_11h22.41.032,0406_02,5,12,2,w,0.3815,none,YL,False,1680751361.0324,none
76,2023-04-06_11h22.43.465,0406_02,5,13,1,p,0.3377,none,BR,False,1680751363.4655,none
77,2023-04-06_11h22.45.948,0406_02,5,14,1,p,0.384,none,BL,False,1680751365.9483,none
78,2023-04-06_11h22.48.431,0406_02,5,15,2,w,0.3896,none,YR,False,1680751368.4316,none
79,2023-04-06_11h22.51.032,0406_02,5,16,2,w,0.506,none,YL,False,1680751371.0327,none
80,2023-04-06_11h23.32.949,0406_02,6,1,1,p,0.4177,none,BL,False,1680751412.9496,none
81,2023-04-06_11h23.35.416,0406_02,6,2,1,p,0.3651,none,BR,False,1680751415.4163,none
82,2023-04-06_11h23.37.831,0406_02,6,3,1,p,0.3219,none,BR,False,1680751417.8315,none
83,2023-04-06_11h23.40.283,0406_02,6,4,1,p,0.3458,none,BL,False,1680751420.2832,none
84,2023-04-06_11h23.43.114,0406_02,6,5,2,w,0.3034,0.7102,YR,True,1680751423.1142,none
85,2023-04-06_11h23.45.931,0406_02,6,6,2,w,0.3021,0.7083,YL,True,1680751425.9318,none
86,2023-04-06_11h23.48.749,0406_02,6,7,2,w,0.3097,0.7137,YR,True,1680751428.7491,none
87,2023-04-06_11h23.51.549,0406_02,6,8,2,w,0.2929,0.6987,YL,True,1680751431.5493,none
88,2023-04-06_11h23.54.165,0406_02,6,9,1,p,0.5168,none,BR,False,1680751434.1659,none
89,2023-04-06_11h23.56.649,0406_02,6,10,1,p,0.3796,none,BR,False,1680751436.6491,none
90,2023-04-06_11h23.59.132,0406_02,6,11,1,p,0.3933,none,BL,False,1680751439.1325,none
91,2023-04-06_11h24.01.949,0406_02,6,12,2,w,0.3494,0.707,YL,True,1680751441.9497,none
92,2023-04-06_11h24.04.765,0406_02,6,13,2,w,0.6131,0.7,YR,True,1680751444.765,none
93,2023-04-06_11h24.07.582,0406_02,6,14,2,w,0.3645,0.6984,YL,True,1680751447.5825,none
94,2023-04-06_11h24.10.416,0406_02,6,15,2,w,0.3311,0.7087,YR,True,1680751450.4161,none
95,2023-04-06_11h24.12.866,0406_02,6,16,1,p,0.354,none,BL,False,1680751452.8661,none
96,2023-04-06_11h24.50.766,0406_02,7,1,1,p,0.3502,none,BR,False,1680751490.7667,none
97,2023-04-06_11h24.53.216,0406_02,7,2,2,p,0.356,0.678,YR,True,1680751493.2166,Wrong_press
98,2023-04-06_11h24.55.799,0406_02,7,3,1,p,0.4816,none,BR,False,1680751495.7992,none
99,2023-04-06_11h24.58.382,0406_02,7,4,1,p,0.4822,none,BL,False,1680751498.3825,none
100,2023-04-06_11h25.00.899,0406_02,7,5,1,p,0.4113,none,BL,False,1680751500.8997,none
101,2023-04-06_11h25.03.698,0406_02,7,6,2,w,0.3351,0.6788,YL,True,1680751503.699,none
102,2023-04-06_11h25.06.483,0406_02,7,7,2,w,0.2553,0.6715,YL,True,1680751506.4836,none
103,2023-04-06_11h25.09.265,0406_02,7,8,2,w,0.3034,0.6652,YL,True,1680751509.2658,none
104,2023-04-06_11h25.12.049,0406_02,7,9,2,w,0.2888,0.6742,YL,True,1680751512.0496,none
105,2023-04-06_11h25.14.550,0406_02,7,10,1,p,0.4002,none,BL,False,1680751514.5504,none
106,2023-04-06_11h25.17.349,0406_02,7,11,2,w,0.3488,0.6899,YR,True,1680751517.3497,none
107,2023-04-06_11h25.19.932,0406_02,7,12,1,p,0.4926,none,BR,False,1680751519.9322,none
108,2023-04-06_11h25.22.383,0406_02,7,13,1,p,0.3576,none,BL,False,1680751522.3837,none
109,2023-04-06_11h25.25.183,0406_02,7,14,2,w,0.3468,0.6853,YR,True,1680751525.1833,none
110,2023-04-06_11h25.27.715,0406_02,7,15,1,p,0.4436,none,BR,False,1680751527.7157,none
111,2023-04-06_11h25.30.498,0406_02,7,16,2,w,0.4218,0.6659,YR,True,1680751530.4988,none
112,2023-04-06_11h26.06.632,0406_02,8,1,1,p,0.4053,none,BL,False,1680751566.6324,none
113,2023-04-06_11h26.09.116,0406_02,8,2,1,p,0.3851,none,BL,False,1680751569.1166,none
114,2023-04-06_11h26.11.549,0406_02,8,3,1,p,0.3338,none,BL,False,1680751571.5498,none
115,2023-04-06_11h26.14.316,0406_02,8,4,2,w,0.3407,0.6564,YR,True,1680751574.3168,none
116,2023-04-06_11h26.17.066,0406_02,8,5,2,w,0.2697,0.6445,YL,True,1680751577.0666,none
117,2023-04-06_11h26.19.516,0406_02,8,6,1,p,0.3514,none,BR,False,1680751579.5166,none
118,2023-04-06_11h26.22.283,0406_02,8,7,2,w,0.3734,0.6654,YR,True,1680751582.2839,none
119,2023-04-06_11h26.24.916,0406_02,8,8,1,p,0.518,none,BL,False,1680751584.9163,none
120,2023-04-06_11h26.27.683,0406_02,8,9,2,w,0.422,0.6657,YL,True,1680751587.6834,none
121,2023-04-06_11h26.31.066,0406_02,8,10,1,p,1.2873,none,BR,False,1680751591.0666,none
122,2023-04-06_11h26.33.832,0406_02,8,11,2,w,0.4314,0.6568,YL,True,1680751593.8329,none
123,2023-04-06_11h26.36.265,0406_02,8,12,1,p,0.3367,none,BR,False,1680751596.2659,none
124,2023-04-06_11h26.38.816,0406_02,8,13,1,p,0.4475,none,BR,False,1680751598.8164,none
125,2023-04-06_11h26.41.549,0406_02,8,14,2,w,0.4095,0.6343,YR,True,1680751601.5493,none
126,2023-04-06_11h26.44.316,0406_02,8,15,2,w,0.4602,0.6585,YR,True,1680751604.3161,none
127,2023-04-06_11h26.47.083,0406_02,8,16,2,w,0.3816,0.6539,YL,True,1680751607.0832,none
128,2023-04-06_11h27.23.899,0406_02,9,1,1,p,0.4023,none,BL,False,1680751643.8994,none
129,2023-04-06_11h27.26.432,0406_02,9,2,1,p,0.4382,none,BL,False,1680751646.4328,none
130,2023-04-06_11h27.28.883,0406_02,9,3,1,p,0.353,none,BL,False,1680751648.8838,none
131,2023-04-06_11h27.31.500,0406_02,9,4,1,p,0.5177,none,BR,False,1680751651.5007,none
132,2023-04-06_11h27.33.950,0406_02,9,5,1,p,0.3498,none,BR,False,1680751653.951,none
133,2023-04-06_11h27.36.699,0406_02,9,6,2,w,0.3547,0.6304,YL,True,1680751656.6997,none
134,2023-04-06_11h27.39.450,0406_02,9,7,2,w,0.502,0.6375,YL,True,1680751659.4503,none
135,2023-04-06_11h27.42.148,0406_02,9,8,2,w,0.3767,0.598,YR,True,1680751662.1484,none
136,2023-04-06_11h27.44.767,0406_02,9,9,1,p,0.516,none,BR,False,1680751664.7671,none
137,2023-04-06_11h27.47.500,0406_02,9,10,2,w,0.2753,0.6307,YL,True,1680751667.5006,none
138,2023-04-06_11h27.50.216,0406_02,9,11,2,w,0.3422,0.6045,YR,True,1680751670.2165,none
139,2023-04-06_11h27.52.734,0406_02,9,12,1,p,0.425,none,BR,False,1680751672.7342,none
140,2023-04-06_11h27.55.517,0406_02,9,13,2,w,0.3481,0.646,YR,True,1680751675.5175,none
141,2023-04-06_11h27.58.233,0406_02,9,14,2,w,0.2934,0.616,YL,True,1680751678.2335,none
142,2023-04-06_11h28.00.949,0406_02,9,15,2,w,0.4006,0.6039,YR,True,1680751680.9495,none
143,2023-04-06_11h28.03.449,0406_02,9,16,1,p,0.4038,none,BL,False,1680751683.4499,none
144,2023-04-06_11h28.44.232,0406_02,10,1,2,w,0.3256,0.6223,YR,True,1680751724.2328,none
145,2023-04-06_11h28.46.667,0406_02,10,2,1,w,0.3366,none,BL,False,1680751726.6672,Wrong_press
146,2023-04-06_11h28.49.767,0406_02,10,3,2,w,0.9924,0.5925,YL,True,1680751729.7675,none
147,2023-04-06_11h28.52.483,0406_02,10,4,2,w,0.355,0.6088,YL,True,1680751732.4832,none
148,2023-04-06_11h28.54.966,0406_02,10,5,1,p,0.3899,none,BR,False,1680751734.9669,none
149,2023-04-06_11h28.57.417,0406_02,10,6,1,p,0.3548,none,BR,False,1680751737.4173,none
150,2023-04-06_11h28.59.900,0406_02,10,7,1,p,0.3934,none,BL,False,1680751739.9007,none
151,2023-04-06_11h29.02.633,0406_02,10,8,2,w,0.3578,0.6195,YR,True,1680751742.633,none
152,2023-04-06_11h29.05.217,0406_02,10,9,1,p,0.4808,none,BL,False,1680751745.2171,none
153,2023-04-06_11h29.07.716,0406_02,10,10,1,p,0.4093,none,BL,False,1680751747.7166,none
154,2023-04-06_11h29.10.450,0406_02,10,11,2,w,0.4771,0.6182,YL,True,1680751750.4501,none
155,2023-04-06_11h29.12.983,0406_02,10,12,1,p,0.4317,none,BR,False,1680751752.9833,none
156,2023-04-06_11h29.15.716,0406_02,10,13,2,w,0.4823,0.6203,YL,True,1680751755.7166,none
157,2023-04-06_11h29.18.433,0406_02,10,14,2,w,0.4531,0.6103,YR,True,1680751758.4334,none
158,2023-04-06_11h29.21.167,0406_02,10,15,2,w,0.3283,0.6104,YR,True,1680751761.1672,none
159,2023-04-06_11h29.23.668,0406_02,10,16,1,p,0.395,none,BR,False,1680751763.6681,none
160,2023-04-06_11h29.58.084,0406_02,11,1,2,w,0.2888,0.5608,YL,True,1680751798.0845,none
161,2023-04-06_11h30.00.617,0406_02,11,2,1,p,0.4382,none,BL,False,1680751800.6173,none
162,2023-04-06_11h30.03.083,0406_02,11,3,1,p,0.3764,none,BL,False,1680751803.0831,none
163,2023-04-06_11h30.05.767,0406_02,11,4,2,w,0.3502,0.565,YR,True,1680751805.7673,none
164,2023-04-06_11h30.08.417,0406_02,11,5,2,w,0.2908,0.5384,YL,True,1680751808.4175,none
165,2023-04-06_11h30.10.983,0406_02,11,6,1,p,0.4646,none,BR,False,1680751810.9834,none
166,2023-04-06_11h30.13.567,0406_02,11,7,1,p,0.49,none,BL,False,1680751813.5679,none
167,2023-04-06_11h30.16.066,0406_02,11,8,1,p,0.3851,none,BR,False,1680751816.0675,none
168,2023-04-06_11h30.18.734,0406_02,11,9,2,w,0.3589,0.5651,YR,True,1680751818.7346,none
169,2023-04-06_11h30.21.300,0406_02,11,10,1,p,0.4682,none,BR,False,1680751821.3008,none
170,2023-04-06_11h30.23.901,0406_02,11,11,1,p,0.5014,none,BR,False,1680751823.9014,none
171,2023-04-06_11h30.26.533,0406_02,11,12,2,w,0.3895,0.5317,YR,True,1680751826.5338,none
172,2023-04-06_11h30.29.216,0406_02,11,13,2,w,0.3886,0.572,YL,True,1680751829.2169,none
173,2023-04-06_11h30.31.916,0406_02,11,14,2,w,0.3841,0.5904,YL,True,1680751831.9168,none
174,2023-04-06_11h30.34.617,0406_02,11,15,2,w,0.3327,0.5854,YR,True,1680751834.6176,none
175,2023-04-06_11h30.37.217,0406_02,11,16,1,p,0.4969,none,BL,False,1680751837.2175,none
176,2023-04-06_11h31.14.868,0406_02,12,1,2,w,0.3845,0.5382,YR,True,1680751874.868,none
177,2023-04-06_11h31.17.483,0406_02,12,2,2,w,0.3182,0.511,YL,True,1680751877.4837,none
178,2023-04-06_11h31.20.034,0406_02,12,3,1,p,0.4457,none,BL,False,1680751880.0346,none
179,2023-04-06_11h31.22.534,0406_02,12,4,1,p,0.408,none,BR,False,1680751882.5341,none
180,2023-04-06_11h31.25.167,0406_02,12,5,2,w,0.2921,0.5317,YL,True,1680751885.1677,none
181,2023-04-06_11h31.27.716,0406_02,12,6,1,p,0.4507,none,BR,False,1680751887.7167,none
182,2023-04-06_11h31.30.318,0406_02,12,7,1,p,0.5084,none,BL,False,1680751890.3189,none
183,2023-04-06_11h31.32.816,0406_02,12,8,1,p,0.3963,none,BL,False,1680751892.8169,none
184,2023-04-06_11h31.35.433,0406_02,12,9,2,w,0.3045,0.5039,YR,True,1680751895.434,none
185,2023-04-06_11h31.38.100,0406_02,12,10,2,w,0.3278,0.5494,YR,True,1680751898.1001,none
186,2023-04-06_11h31.40.751,0406_02,12,11,2,w,0.3011,0.5343,YL,True,1680751900.7518,none
187,2023-04-06_11h31.43.267,0406_02,12,12,1,p,0.4109,none,BL,False,1680751903.2677,none
188,2023-04-06_11h31.45.851,0406_02,12,13,1,p,0.4857,none,BR,False,1680751905.8512,none
189,2023-04-06_11h31.48.451,0406_02,12,14,2,w,0.2713,0.4949,YL,True,1680751908.451,none
190,2023-04-06_11h31.51.134,0406_02,12,15,1,p,0.5909,none,BR,False,1680751911.1342,none
191,2023-04-06_11h31.53.767,0406_02,12,16,2,w,0.371,0.5286,YR,True,1680751913.7677,none
192,2023-04-06_11h32.27.484,0406_02,13,1,1,p,0.3849,none,BR,False,1680751947.4849,none
193,2023-04-06_11h32.30.517,0406_02,13,2,2,w,0.9416,none,YL,False,1680751950.5173,none
194,2023-04-06_11h32.33.050,0406_02,13,3,2,w,0.4365,none,YR,False,1680751953.0509,none
195,2023-04-06_11h32.35.518,0406_02,13,4,1,p,0.3668,none,BL,False,1680751955.5185,none
196,2023-04-06_11h32.37.952,0406_02,13,5,2,w,0.34,none,YL,False,1680751957.9523,none
197,2023-04-06_11h32.40.401,0406_02,13,6,2,w,0.3545,none,YL,False,1680751960.4012,none
198,2023-04-06_11h32.42.834,0406_02,13,7,2,w,0.3374,none,YR,False,1680751962.8345,none
199,2023-04-06_11h32.45.317,0406_02,13,8,1,p,0.3916,none,BL,False,1680751965.3177,none
200,2023-04-06_11h32.47.867,0406_02,13,9,1,p,0.452,none,BR,False,1680751967.8679,none
201,2023-04-06_11h32.50.284,0406_02,13,10,2,w,0.326,none,YR,False,1680751970.2843,none
202,2023-04-06_11h32.52.834,0406_02,13,11,1,p,0.4452,none,BR,False,1680751972.8345,none
203,2023-04-06_11h32.55.351,0406_02,13,12,1,p,0.4232,none,BL,False,1680751975.352,none
204,2023-04-06_11h32.57.784,0406_02,13,13,2,w,0.3308,none,YL,False,1680751977.7844,none
205,2023-04-06_11h33.00.467,0406_02,13,14,1,p,0.5776,none,BL,False,1680751980.4679,none
206,2023-04-06_11h33.02.950,0406_02,13,15,1,p,0.3821,none,BR,False,1680751982.9506,none
207,2023-04-06_11h33.05.434,0406_02,13,16,2,w,0.3785,none,YR,False,1680751985.4343,none
208,2023-04-06_11h33.40.718,0406_02,14,1,2,w,0.3248,0.5166,YR,True,1680752020.7182,none
209,2023-04-06_11h33.43.268,0406_02,14,2,1,p,0.4437,none,BL,False,1680752023.2682,none
210,2023-04-06_11h33.45.783,0406_02,14,3,1,p,0.4135,none,BR,False,1680752025.7839,none
211,2023-04-06_11h33.48.251,0406_02,14,4,1,p,0.3695,none,BL,False,1680752028.2519,none
212,2023-04-06_11h33.50.869,0406_02,14,5,2,w,0.3665,0.5039,YL,True,1680752030.8692,none
213,2023-04-06_11h33.53.468,0406_02,14,6,2,w,0.3653,0.471,YR,True,1680752033.4684,none
214,2023-04-06_11h33.56.018,0406_02,14,7,1,p,0.446,none,BL,False,1680752036.018,none
215,2023-04-06_11h33.58.517,0406_02,14,8,1,p,0.4079,none,BR,False,1680752038.5178,none
216,2023-04-06_11h34.01.134,0406_02,14,9,2,w,0.3559,0.5007,YR,True,1680752041.1348,none
217,2023-04-06_11h34.03.784,0406_02,14,10,2,w,0.2988,0.5336,YL,True,1680752043.7841,none
218,2023-04-06_11h34.06.351,0406_02,14,11,1,p,0.4734,none,BR,False,1680752046.3516,none
219,2023-04-06_11h34.08.918,0406_02,14,12,1,p,0.4665,none,BR,False,1680752048.9181,none
220,2023-04-06_11h34.11.534,0406_02,14,13,1,p,0.5228,none,BL,False,1680752051.5349,none
221,2023-04-06_11h34.14.184,0406_02,14,14,2,w,0.4427,0.5488,YR,True,1680752054.1844,none
222,2023-04-06_11h34.16.784,0406_02,14,15,2,w,0.4654,0.4857,YL,True,1680752056.7849,none
223,2023-04-06_11h34.19.367,0406_02,14,16,2,w,0.3454,0.4713,YL,True,1680752059.3675,none
224,2023-04-06_11h35.01.569,0406_02,15,1,2,w,0.2643,0.4497,YL,True,1680752101.5691,none
225,2023-04-06_11h35.04.184,0406_02,15,2,2,w,0.3056,0.5075,YR,True,1680752104.1849,none
226,2023-04-06_11h35.06.651,0406_02,15,3,1,p,0.3771,none,BL,False,1680752106.6512,none
227,2023-04-06_11h35.09.235,0406_02,15,4,2,w,0.4631,0.4348,YL,True,1680752109.2353,none
228,2023-04-06_11h35.11.818,0406_02,15,5,2,w,0.2948,0.4639,YL,True,1680752111.8186,none
229,2023-04-06_11h35.14.318,0406_02,15,6,1,p,0.4072,none,BL,False,1680752114.3181,none
230,2023-04-06_11h35.16.752,0406_02,15,7,1,p,0.3318,none,BL,False,1680752116.7523,none
231,2023-04-06_11h35.19.317,0406_02,15,8,2,w,0.2583,0.4615,YL,True,1680752119.318,none
232,2023-04-06_11h35.21.817,0406_02,15,9,1,p,0.3952,none,BR,False,1680752121.8179,none
233,2023-04-06_11h35.24.284,0406_02,15,10,1,p,0.3751,none,BL,False,1680752124.2846,none
234,2023-04-06_11h35.26.768,0406_02,15,11,1,p,0.3808,none,BR,False,1680752126.7686,none
235,2023-04-06_11h35.29.218,0406_02,15,12,1,p,0.3533,none,BR,False,1680752129.2189,none
236,2023-04-06_11h35.31.819,0406_02,15,13,2,w,0.3675,0.4823,YR,True,1680752131.8196,none
237,2023-04-06_11h35.34.418,0406_02,15,14,2,w,0.3114,0.4883,YR,True,1680752134.4181,none
238,2023-04-06_11h35.36.968,0406_02,15,15,2,w,0.3191,0.4373,YR,True,1680752136.969,none
239,2023-04-06_11h35.39.435,0406_02,15,16,1,p,0.3695,none,BR,False,1680752139.4354,none
240,2023-04-06_11h36.16.686,0406_02,16,1,1,p,0.4676,none,BR,False,1680752176.6867,none
241,2023-04-06_11h36.19.201,0406_02,16,2,1,p,0.4037,none,BL,False,1680752179.2018,none
242,2023-04-06_11h36.21.769,0406_02,16,3,2,w,0.4484,0.4464,YR,True,1680752181.7691,none
243,2023-04-06_11h36.24.267,0406_02,16,4,1,p,0.4016,none,BR,False,1680752184.2675,none
244,2023-04-06_11h36.26.769,0406_02,16,5,1,p,0.4051,none,BL,False,1680752186.7697,none
245,2023-04-06_11h36.29.218,0406_02,16,6,1,p,0.3539,none,BR,False,1680752189.218,none
246,2023-04-06_11h36.31.686,0406_02,16,7,1,p,0.3671,none,BL,False,1680752191.6861,none
247,2023-04-06_11h36.34.234,0406_02,16,8,2,w,0.3084,0.4416,YR,True,1680752194.2346,none
248,2023-04-06_11h36.36.751,0406_02,16,9,2,w,0.2389,0.4117,YL,True,1680752196.7516,none
249,2023-04-06_11h36.39.268,0406_02,16,10,2,w,0.2657,0.4026,YR,True,1680752199.2685,none
250,2023-04-06_11h36.41.802,0406_02,16,11,2,w,0.285,0.4137,YL,True,1680752201.802,none
251,2023-04-06_11h36.44.302,0406_02,16,12,2,w,0.3757,0.4003,YR,True,1680752204.3023,none
252,2023-04-06_11h36.46.917,0406_02,16,13,1,p,0.524,none,BR,False,1680752206.918,none
253,2023-04-06_11h36.49.602,0406_02,16,14,1,p,0.5793,none,BL,False,1680752209.6023,none
254,2023-04-06_11h36.52.169,0406_02,16,15,2,w,0.3197,0.454,YL,True,1680752212.1696,none
255,2023-04-06_11h36.54.785,0406_02,16,16,2,w,0.328,0.48,YL,True,1680752214.7851,none
256,2023-04-06_11h37.33.152,0406_02,17,1,2,w,0.3245,0.3602,YL,True,1680752253.153,none
257,2023-04-06_11h37.35.635,0406_02,17,2,1,p,0.3938,none,BR,False,1680752255.6359,none
258,2023-04-06_11h37.38.185,0406_02,17,3,2,w,0.2615,0.4351,YL,True,1680752258.1857,none
259,2023-04-06_11h37.40.968,0406_02,17,4,1,p,0.6886,none,BL,False,1680752260.9688,none
260,2023-04-06_11h37.43.402,0406_02,17,5,1,p,0.337,none,BR,False,1680752263.4022,none
261,2023-04-06_11h37.45.836,0406_02,17,6,1,p,0.3433,none,BR,False,1680752265.8365,none
262,2023-04-06_11h37.48.301,0406_02,17,7,1,p,0.3672,none,BR,False,1680752268.3017,none
263,2023-04-06_11h37.50.785,0406_02,17,8,2,w,0.3395,0.3748,YR,True,1680752270.7858,none
264,2023-04-06_11h37.53.418,0406_02,17,9,2,w,0.5151,0.4298,YR,True,1680752273.4183,none
265,2023-04-06_11h37.55.819,0406_02,17,10,1,w,0.3108,none,BL,False,1680752275.8195,Wrong_press
266,2023-04-06_11h37.58.285,0406_02,17,11,1,p,0.3767,none,BL,False,1680752278.285,none
267,2023-04-06_11h38.00.819,0406_02,17,12,2,w,0.3245,0.424,YR,True,1680752280.819,none
268,2023-04-06_11h38.03.734,0406_02,17,13,2,w,0.7937,0.4117,YL,True,1680752283.7346,none
269,2023-04-06_11h38.06.252,0406_02,17,14,2,w,0.2662,0.4061,YL,True,1680752286.2522,none
270,2023-04-06_11h38.08.768,0406_02,17,15,2,w,0.3018,0.4047,YR,True,1680752288.7686,none
271,2023-04-06_11h38.11.235,0406_02,17,16,1,p,0.3611,none,BL,False,1680752291.237,none
272,2023-04-06_11h38.44.819,0406_02,18,1,2,w,0.3635,0.4017,YL,True,1680752324.8192,none
273,2023-04-06_11h38.47.285,0406_02,18,2,2,w,0.3346,0.3541,YR,True,1680752327.2858,none
274,2023-04-06_11h38.49.735,0406_02,18,3,2,w,0.3077,0.3496,YR,True,1680752329.7358,none
275,2023-04-06_11h38.52.236,0406_02,18,4,2,w,0.2817,0.3911,YR,True,1680752332.2366,none
276,2023-04-06_11h38.54.802,0406_02,18,5,1,p,0.4533,none,BR,False,1680752334.8025,none
277,2023-04-06_11h38.57.302,0406_02,18,6,1,p,0.399,none,BR,False,1680752337.3023,none
278,2023-04-06_11h38.59.752,0406_02,18,7,1,p,0.3551,none,BR,False,1680752339.7526,none
279,2023-04-06_11h39.02.268,0406_02,18,8,2,w,0.3295,0.3986,YL,True,1680752342.2688,none
280,2023-04-06_11h39.04.736,0406_02,18,9,1,p,0.3725,none,BL,False,1680752344.7367,none
281,2023-04-06_11h39.07.419,0406_02,18,10,1,p,0.5937,none,BL,False,1680752347.4201,none
282,2023-04-06_11h39.09.835,0406_02,18,11,1,p,0.3265,none,BR,False,1680752349.8357,none
283,2023-04-06_11h39.12.436,0406_02,18,12,1,p,0.5099,none,BL,False,1680752352.4363,none
284,2023-04-06_11h39.15.002,0406_02,18,13,2,w,0.2536,0.4529,YL,True,1680752355.0025,none
285,2023-04-06_11h39.17.551,0406_02,18,14,2,w,0.319,0.4323,YR,True,1680752357.5519,none
286,2023-04-06_11h39.20.052,0406_02,18,15,1,p,0.3934,none,BL,False,1680752360.0527,none
287,2023-04-06_11h39.22.618,0406_02,18,16,2,w,0.3572,0.4586,YL,True,1680752362.6189,none
288,2023-04-06_11h39.58.985,0406_02,19,1,1,p,0.3956,none,BL,False,1680752398.9857,none
289,2023-04-06_11h40.01.470,0406_02,19,2,1,p,0.3915,none,BR,False,1680752401.4703,none
290,2023-04-06_11h40.03.887,0406_02,19,3,2,w,0.3244,none,YR,False,1680752403.8875,none
291,2023-04-06_11h40.06.351,0406_02,19,4,1,p,0.348,none,BL,False,1680752406.3519,none
292,2023-04-06_11h40.08.836,0406_02,19,5,1,p,0.3771,none,BR,False,1680752408.8363,none
293,2023-04-06_11h40.11.352,0406_02,19,6,1,p,0.4137,none,BL,False,1680752411.353,none
294,2023-04-06_11h40.13.753,0406_02,19,7,2,w,0.2972,none,YR,False,1680752413.7535,none
295,2023-04-06_11h40.16.135,0406_02,19,8,2,w,0.2807,none,YL,False,1680752416.136,none
296,2023-04-06_11h40.18.569,0406_02,19,9,2,w,0.3374,none,YL,False,1680752418.5693,none
297,2023-04-06_11h40.20.969,0406_02,19,10,2,w,0.2957,none,YL,False,1680752420.9697,none
298,2023-04-06_11h40.23.420,0406_02,19,11,2,w,0.3525,none,YR,False,1680752423.4202,none
299,2023-04-06_11h40.25.953,0406_02,19,12,1,p,0.4303,none,BR,False,1680752425.9537,none
300,2023-04-06_11h40.28.320,0406_02,19,13,2,w,0.2645,none,YL,False,1680752428.3201,none
301,2023-04-06_11h40.30.902,0406_02,19,14,1,p,0.4902,none,BL,False,1680752430.9029,none
302,2023-04-06_11h40.33.369,0406_02,19,15,2,w,0.362,none,YR,False,1680752433.37,none
303,2023-04-06_11h40.35.836,0406_02,19,16,1,p,0.3759,none,BR,False,1680752435.8366,none
304,2023-04-06_11h41.16.619,0406_02,20,1,2,w,0.3201,0.3327,YR,True,1680752476.6199,none
305,2023-04-06_11h41.19.119,0406_02,20,2,2,w,0.3582,0.386,YL,True,1680752479.1191,none
306,2023-04-06_11h41.21.587,0406_02,20,3,1,p,0.3701,none,BR,False,1680752481.5873,none
307,2023-04-06_11h41.24.135,0406_02,20,4,2,w,0.4333,0.4117,YR,True,1680752484.1358,none
308,2023-04-06_11h41.26.703,0406_02,20,5,1,p,0.4734,none,BR,False,1680752486.7037,none
309,2023-04-06_11h41.29.170,0406_02,20,6,1,p,0.3628,none,BL,False,1680752489.1707,none
310,2023-04-06_11h41.31.669,0406_02,20,7,2,w,0.2954,0.3614,YL,True,1680752491.6698,none
311,2023-04-06_11h41.34.119,0406_02,20,8,1,p,0.3557,none,BR,False,1680752494.1198,none
312,2023-04-06_11h41.36.636,0406_02,20,9,2,w,0.3218,0.4055,YR,True,1680752496.6364,none
313,2023-04-06_11h41.39.103,0406_02,20,10,1,p,0.3733,none,BL,False,1680752499.1032,none
314,2023-04-06_11h41.41.653,0406_02,20,11,2,w,0.3863,0.4339,YL,True,1680752501.6533,none
315,2023-04-06_11h41.44.286,0406_02,20,12,1,p,0.5324,none,BL,False,1680752504.2866,none
316,2023-04-06_11h41.46.887,0406_02,20,13,1,p,0.4994,none,BR,False,1680752506.8871,none
317,2023-04-06_11h41.49.419,0406_02,20,14,2,w,0.3149,0.4209,YR,True,1680752509.4197,none
318,2023-04-06_11h41.51.853,0406_02,20,15,2,w,0.286,0.3144,YL,True,1680752511.8535,none
319,2023-04-06_11h41.54.536,0406_02,20,16,1,p,0.5802,none,BL,False,1680752514.5367,none
