,timestamp,experiment_ID,block_ID,stimulus_ID,subject,key_press,rt,fake_human_rt,trial_stim,fake_or_not,UNIX_time,wrong_type
0,2023-04-07_15h52.24.248,0407_04,1,1,2,w,0.4443,none,YR,False,1680853944.2481,none
1,2023-04-07_15h52.26.882,0407_04,1,2,1,p,0.534,none,BR,False,1680853946.882,none
2,2023-04-07_15h52.29.481,0407_04,1,3,1,p,0.5089,none,BL,False,1680853949.4816,none
3,2023-04-07_15h52.32.000,0407_04,1,4,2,w,0.4211,none,YL,False,1680853952.0003,none
4,2023-04-07_15h52.34.515,0407_04,1,5,1,p,0.4156,none,BR,False,1680853954.5156,none
5,2023-04-07_15h52.37.149,0407_04,1,6,1,p,0.532,none,BL,False,1680853957.1493,none
6,2023-04-07_15h52.39.748,0407_04,1,7,2,w,0.5073,none,YR,False,1680853959.7488,none
7,2023-04-07_15h52.42.249,0407_04,1,8,1,p,0.3943,none,BR,False,1680853962.2497,none
8,2023-04-07_15h52.44.698,0407_04,1,9,2,w,0.3506,none,YL,False,1680853964.6985,none
9,2023-04-07_15h52.47.166,0407_04,1,10,1,p,0.3646,none,BL,False,1680853967.1661,none
10,2023-04-07_15h52.49.599,0407_04,1,11,2,w,0.3379,none,YR,False,1680853969.5992,none
11,2023-04-07_15h52.52.215,0407_04,1,12,2,w,0.5207,none,YL,False,1680853972.2151,none
12,2023-04-07_15h52.54.698,0407_04,1,13,2,w,0.3837,none,YR,False,1680853974.699,none
13,2023-04-07_15h52.57.198,0407_04,1,14,1,p,0.3965,none,BL,False,1680853977.1981,none
14,2023-04-07_15h52.59.799,0407_04,1,15,2,w,0.504,none,YL,False,1680853979.7997,none
15,2023-04-07_15h53.02.315,0407_04,1,16,1,p,0.4167,none,BR,False,1680853982.3155,none
16,2023-04-07_15h53.39.514,0407_04,2,1,1,p,0.3831,none,BR,False,1680854019.515,none
17,2023-04-07_15h53.42.082,0407_04,2,2,1,p,0.4676,none,BL,False,1680854022.0827,none
18,2023-04-07_15h53.44.566,0407_04,2,3,2,w,0.3892,none,YR,False,1680854024.566,none
19,2023-04-07_15h53.47.099,0407_04,2,4,2,w,0.4338,none,YL,False,1680854027.0997,none
20,2023-04-07_15h53.49.649,0407_04,2,5,1,p,0.4445,none,BR,False,1680854029.6494,none
21,2023-04-07_15h53.52.232,0407_04,2,6,2,w,0.4941,none,YL,False,1680854032.2333,none
22,2023-04-07_15h53.54.832,0407_04,2,7,2,w,0.4951,none,YR,False,1680854034.8324,none
23,2023-04-07_15h53.57.332,0407_04,2,8,1,p,0.3987,none,BR,False,1680854037.3323,none
24,2023-04-07_15h53.59.898,0407_04,2,9,2,w,0.4749,none,YR,False,1680854039.8984,none
25,2023-04-07_15h54.02.415,0407_04,2,10,1,p,0.4203,none,BL,False,1680854042.4152,none
26,2023-04-07_15h54.04.847,0407_04,2,11,2,w,0.336,none,YL,False,1680854044.848,none
27,2023-04-07_15h54.07.415,0407_04,2,12,2,w,0.4613,none,YL,False,1680854047.4152,none
28,2023-04-07_15h54.09.882,0407_04,2,13,2,w,0.3757,none,YR,False,1680854049.8827,none
29,2023-04-07_15h54.12.316,0407_04,2,14,1,p,0.341,none,BL,False,1680854052.3167,none
30,2023-04-07_15h54.14.865,0407_04,2,15,1,p,0.4515,none,BL,False,1680854054.8656,none
31,2023-04-07_15h54.17.398,0407_04,2,16,1,p,0.4372,none,BR,False,1680854057.3984,none
32,2023-04-07_15h54.54.266,0407_04,3,1,2,w,0.4168,0.7731,YR,True,1680854094.2664,none
33,2023-04-07_15h54.56.749,0407_04,3,2,1,p,0.3893,none,BL,False,1680854096.7493,none
34,2023-04-07_15h54.59.315,0407_04,3,3,1,p,0.474,none,BR,False,1680854099.3159,none
35,2023-04-07_15h55.01.816,0407_04,3,4,1,p,0.3951,none,BR,False,1680854101.8163,none
36,2023-04-07_15h55.04.382,0407_04,3,5,1,p,0.4627,none,BL,False,1680854104.3825,none
37,2023-04-07_15h55.06.949,0407_04,3,6,1,p,0.473,none,BR,False,1680854106.9492,none
38,2023-04-07_15h55.09.832,0407_04,3,7,2,w,0.4259,0.7731,YL,True,1680854109.8323,none
39,2023-04-07_15h55.12.716,0407_04,3,8,2,w,0.3826,0.7731,YR,True,1680854112.7165,none
40,2023-04-07_15h55.15.599,0407_04,3,9,2,w,0.3716,0.7731,YL,True,1680854115.599,none
41,2023-04-07_15h55.18.098,0407_04,3,10,1,p,0.4079,none,BL,False,1680854118.099,none
42,2023-04-07_15h55.20.982,0407_04,3,11,2,w,0.3881,0.7731,YR,True,1680854120.9824,none
43,2023-04-07_15h55.23.865,0407_04,3,12,2,w,0.4402,0.7731,YR,True,1680854123.8659,none
44,2023-04-07_15h55.26.749,0407_04,3,13,2,w,0.3416,0.7731,YL,True,1680854126.7497,none
45,2023-04-07_15h55.29.182,0407_04,3,14,1,p,0.3295,none,BR,False,1680854129.1829,none
46,2023-04-07_15h55.31.782,0407_04,3,15,1,p,0.4968,none,BL,False,1680854131.7822,none
47,2023-04-07_15h55.34.666,0407_04,3,16,2,w,0.5526,0.7731,YL,True,1680854134.6664,none
48,2023-04-07_15h56.08.749,0407_04,4,1,1,p,0.3565,none,BR,False,1680854168.7491,none
49,2023-04-07_15h56.11.282,0407_04,4,2,1,p,0.4339,none,BL,False,1680854171.2823,none
50,2023-04-07_15h56.13.715,0407_04,4,3,1,p,0.3405,none,BR,False,1680854173.7157,none
51,2023-04-07_15h56.16.183,0407_04,4,4,1,p,0.371,none,BR,False,1680854176.183,none
52,2023-04-07_15h56.18.599,0407_04,4,5,1,p,0.3198,none,BR,False,1680854178.5998,none
53,2023-04-07_15h56.21.032,0407_04,4,6,1,p,0.3437,none,BL,False,1680854181.0325,none
54,2023-04-07_15h56.23.599,0407_04,4,7,2,w,0.4706,none,YR,False,1680854183.5993,none
55,2023-04-07_15h56.26.150,0407_04,4,8,2,w,0.4467,none,YL,False,1680854186.1506,none
56,2023-04-07_15h56.28.648,0407_04,4,9,2,w,0.4017,none,YL,False,1680854188.6487,none
57,2023-04-07_15h56.31.166,0407_04,4,10,1,p,0.4221,none,BL,False,1680854191.1665,none
58,2023-04-07_15h56.33.649,0407_04,4,11,2,w,0.385,none,YR,False,1680854193.6499,none
59,2023-04-07_15h56.36.198,0407_04,4,12,2,w,0.4539,none,YL,False,1680854196.1995,none
60,2023-04-07_15h56.38.665,0407_04,4,13,2,w,0.3679,none,YL,False,1680854198.6656,none
61,2023-04-07_15h56.41.183,0407_04,4,14,1,p,0.4131,none,BL,False,1680854201.1832,none
62,2023-04-07_15h56.43.649,0407_04,4,15,2,w,0.3755,none,YR,False,1680854203.6492,none
63,2023-04-07_15h56.46.149,0407_04,4,16,2,w,0.406,none,YR,False,1680854206.1496,none
64,2023-04-07_15h57.20.232,0407_04,5,1,2,w,0.4083,0.7429,YL,True,1680854240.2328,none
65,2023-04-07_15h57.23.099,0407_04,5,2,2,w,0.414,0.7419,YR,True,1680854243.0995,none
66,2023-04-07_15h57.25.616,0407_04,5,3,1,p,0.4196,none,BL,False,1680854245.6167,none
67,2023-04-07_15h57.28.467,0407_04,5,4,2,w,0.4232,0.7467,YR,True,1680854248.4672,none
68,2023-04-07_15h57.31.315,0407_04,5,5,2,w,0.3888,0.7448,YL,True,1680854251.316,none
69,2023-04-07_15h57.33.782,0407_04,5,6,1,p,0.3713,none,BR,False,1680854253.7822,none
70,2023-04-07_15h57.36.649,0407_04,5,7,2,w,0.328,0.7462,YR,True,1680854256.6496,none
71,2023-04-07_15h57.39.499,0407_04,5,8,2,w,0.4059,0.744,YL,True,1680854259.4998,none
72,2023-04-07_15h57.42.033,0407_04,5,9,1,p,0.4276,none,BL,False,1680854262.0332,none
73,2023-04-07_15h57.44.883,0407_04,5,10,2,w,0.3416,0.7424,YR,True,1680854264.8833,none
74,2023-04-07_15h57.47.349,0407_04,5,11,1,p,0.3724,none,BR,False,1680854267.3496,none
75,2023-04-07_15h57.49.865,0407_04,5,12,1,p,0.4261,none,BL,False,1680854269.8654,none
76,2023-04-07_15h57.52.399,0407_04,5,13,1,p,0.4287,none,BL,False,1680854272.3995,none
77,2023-04-07_15h57.54.932,0407_04,5,14,1,p,0.4402,none,BR,False,1680854274.933,none
78,2023-04-07_15h57.57.784,0407_04,5,15,2,w,0.4579,0.7463,YL,True,1680854277.7841,none
79,2023-04-07_15h58.00.182,0407_04,5,16,1,p,0.3042,none,BR,False,1680854280.1823,none
80,2023-04-07_15h58.40.933,0407_04,6,1,1,p,0.4648,none,BL,False,1680854320.9338,none
81,2023-04-07_15h58.43.750,0407_04,6,2,2,w,0.4422,0.7179,YL,True,1680854323.7502,none
82,2023-04-07_15h58.46.582,0407_04,6,3,2,w,0.4007,0.7172,YR,True,1680854326.5829,none
83,2023-04-07_15h58.49.417,0407_04,6,4,2,w,0.3997,0.7204,YL,True,1680854329.4173,none
84,2023-04-07_15h58.51.833,0407_04,6,5,1,p,0.3184,none,BR,False,1680854331.8331,none
85,2023-04-07_15h58.54.333,0407_04,6,6,1,p,0.3979,none,BL,False,1680854334.333,none
86,2023-04-07_15h58.56.766,0407_04,6,7,1,p,0.338,none,BR,False,1680854336.7663,none
87,2023-04-07_15h58.59.600,0407_04,6,8,2,w,0.4326,0.7147,YL,True,1680854339.6003,none
88,2023-04-07_15h59.02.016,0407_04,6,9,1,p,0.3272,none,BR,False,1680854342.0163,none
89,2023-04-07_15h59.04.616,0407_04,6,10,1,p,0.4948,none,BR,False,1680854344.6161,none
90,2023-04-07_15h59.07.432,0407_04,6,11,2,w,0.4867,0.7107,YR,True,1680854347.4329,none
91,2023-04-07_15h59.09.865,0407_04,6,12,1,p,0.3341,none,BL,False,1680854349.8659,none
92,2023-04-07_15h59.12.349,0407_04,6,13,1,p,0.3887,none,BL,False,1680854352.35,none
93,2023-04-07_15h59.15.182,0407_04,6,14,2,w,0.3697,0.7211,YL,True,1680854355.1825,none
94,2023-04-07_15h59.17.999,0407_04,6,15,2,w,0.3597,0.7195,YR,True,1680854357.9999,none
95,2023-04-07_15h59.20.833,0407_04,6,16,2,w,0.3345,0.7188,YR,True,1680854360.8337,none
96,2023-04-07_15h59.54.399,0407_04,7,1,2,w,0.4465,0.6804,YL,True,1680854394.3997,none
97,2023-04-07_15h59.56.917,0407_04,7,2,1,p,0.4232,none,BL,False,1680854396.9173,none
98,2023-04-07_15h59.59.416,0407_04,7,3,1,p,0.4116,none,BL,False,1680854399.4163,none
99,2023-04-07_16h00.01.850,0407_04,7,4,1,p,0.3345,none,BL,False,1680854401.8502,none
100,2023-04-07_16h00.04.282,0407_04,7,5,1,p,0.3331,none,BR,False,1680854404.283,none
101,2023-04-07_16h00.07.083,0407_04,7,6,2,w,0.4357,0.6913,YL,True,1680854407.0834,none
102,2023-04-07_16h00.09.883,0407_04,7,7,2,w,0.516,0.6808,YR,True,1680854409.8834,none
103,2023-04-07_16h00.12.333,0407_04,7,8,1,p,0.3552,none,BR,False,1680854412.3339,none
104,2023-04-07_16h00.15.132,0407_04,7,9,2,w,0.4496,0.68,YR,True,1680854415.1329,none
105,2023-04-07_16h00.17.916,0407_04,7,10,2,w,0.4262,0.6828,YL,True,1680854417.917,none
106,2023-04-07_16h00.20.483,0407_04,7,11,1,p,0.4669,none,BL,False,1680854420.4838,none
107,2023-04-07_16h00.23.283,0407_04,7,12,2,w,0.3794,0.689,YL,True,1680854423.2835,none
108,2023-04-07_16h00.26.099,0407_04,7,13,2,w,0.3799,0.6925,YR,True,1680854426.0996,none
109,2023-04-07_16h00.28.683,0407_04,7,14,1,p,0.4831,none,BR,False,1680854428.684,none
110,2023-04-07_16h00.31.483,0407_04,7,15,2,w,0.4438,0.689,YR,True,1680854431.4838,none
111,2023-04-07_16h00.33.916,0407_04,7,16,1,p,0.3399,none,BR,False,1680854433.9169,none
112,2023-04-07_16h01.09.717,0407_04,8,1,1,p,0.4483,none,BL,False,1680854469.7174,none
113,2023-04-07_16h01.12.151,0407_04,8,2,1,p,0.3381,none,BL,False,1680854472.1512,none
114,2023-04-07_16h01.14.534,0407_04,8,3,1,p,0.2889,none,BR,False,1680854474.5342,none
115,2023-04-07_16h01.17.299,0407_04,8,4,2,w,0.4497,0.6554,YL,True,1680854477.2999,none
116,2023-04-07_16h01.20.083,0407_04,8,5,2,w,0.3632,0.6672,YL,True,1680854480.0836,none
117,2023-04-07_16h01.22.599,0407_04,8,6,1,p,0.4197,none,BL,False,1680854482.6,none
118,2023-04-07_16h01.25.366,0407_04,8,7,2,w,0.3508,0.6552,YR,True,1680854485.367,none
119,2023-04-07_16h01.27.884,0407_04,8,8,1,p,0.4161,none,BL,False,1680854487.8842,none
120,2023-04-07_16h01.30.383,0407_04,8,9,1,p,0.3962,none,BR,False,1680854490.3834,none
121,2023-04-07_16h01.33.149,0407_04,8,10,2,w,0.4157,0.6568,YL,True,1680854493.1499,none
122,2023-04-07_16h01.35.933,0407_04,8,11,2,w,0.3681,0.6712,YR,True,1680854495.9339,none
123,2023-04-07_16h01.38.383,0407_04,8,12,1,p,0.3539,none,BR,False,1680854498.3834,none
124,2023-04-07_16h01.41.149,0407_04,8,13,2,w,0.4079,0.6685,YR,True,1680854501.1499,none
125,2023-04-07_16h01.43.932,0407_04,8,14,2,w,0.3611,0.6571,YL,True,1680854503.9328,none
126,2023-04-07_16h01.46.417,0407_04,8,15,1,p,0.3857,none,BR,False,1680854506.4171,none
127,2023-04-07_16h01.49.183,0407_04,8,16,2,w,0.4062,0.6532,YR,True,1680854509.1833,none
128,2023-04-07_16h02.22.833,0407_04,9,1,2,w,0.4116,0.6355,YL,True,1680854542.8335,none
129,2023-04-07_16h02.25.300,0407_04,9,2,1,p,0.3651,none,BL,False,1680854545.3005,none
130,2023-04-07_16h02.27.833,0407_04,9,3,1,p,0.4349,none,BL,False,1680854547.8333,none
131,2023-04-07_16h02.30.583,0407_04,9,4,2,w,0.4374,0.6346,YR,True,1680854550.5832,none
132,2023-04-07_16h02.33.050,0407_04,9,5,1,p,0.3677,none,BR,False,1680854553.051,none
133,2023-04-07_16h02.35.784,0407_04,9,6,2,w,0.3163,0.6246,YL,True,1680854555.7841,none
134,2023-04-07_16h02.38.216,0407_04,9,7,1,p,0.3276,none,BR,False,1680854558.2166,none
135,2023-04-07_16h02.40.766,0407_04,9,8,1,p,0.4538,none,BR,False,1680854560.7666,none
136,2023-04-07_16h02.43.516,0407_04,9,9,2,w,0.384,0.6354,YL,True,1680854563.5169,none
137,2023-04-07_16h02.46.000,0407_04,9,10,1,p,0.3857,none,BL,False,1680854566.0007,none
138,2023-04-07_16h02.48.733,0407_04,9,11,2,w,0.3675,0.628,YR,True,1680854568.7331,none
139,2023-04-07_16h02.51.483,0407_04,9,12,2,w,0.3932,0.6441,YL,True,1680854571.4838,none
140,2023-04-07_16h02.53.866,0407_04,9,13,1,p,0.2905,none,BR,False,1680854573.8669,none
141,2023-04-07_16h02.56.600,0407_04,9,14,2,w,0.3879,0.6281,YR,True,1680854576.6001,none
142,2023-04-07_16h02.59.133,0407_04,9,15,1,p,0.4387,none,BL,False,1680854579.134,none
143,2023-04-07_16h03.01.867,0407_04,9,16,2,w,0.3769,0.6274,YR,True,1680854581.8672,none
144,2023-04-07_16h03.35.200,0407_04,10,1,1,p,0.4107,none,BL,False,1680854615.2002,none
145,2023-04-07_16h03.37.633,0407_04,10,2,1,p,0.334,none,BR,False,1680854617.634,none
146,2023-04-07_16h03.40.266,0407_04,10,3,2,w,0.5406,none,YL,False,1680854620.2669,none
147,2023-04-07_16h03.42.751,0407_04,10,4,2,w,0.3882,none,YR,False,1680854622.7514,none
148,2023-04-07_16h03.45.234,0407_04,10,5,2,w,0.3927,none,YL,False,1680854625.2342,none
149,2023-04-07_16h03.47.700,0407_04,10,6,2,w,0.3653,none,YR,False,1680854627.7006,none
150,2023-04-07_16h03.50.100,0407_04,10,7,1,p,0.3068,none,BR,False,1680854630.101,none
151,2023-04-07_16h03.52.616,0407_04,10,8,1,p,0.4185,none,BR,False,1680854632.6165,none
152,2023-04-07_16h03.55.067,0407_04,10,9,1,p,0.358,none,BR,False,1680854635.0674,none
153,2023-04-07_16h03.58.183,0407_04,10,10,2,w,1.02,none,YR,False,1680854638.1835,none
154,2023-04-07_16h04.00.650,0407_04,10,11,1,p,0.3752,none,BL,False,1680854640.6507,none
155,2023-04-07_16h04.03.116,0407_04,10,12,2,w,0.3647,none,YL,False,1680854643.117,none
156,2023-04-07_16h04.05.567,0407_04,10,13,2,w,0.3459,none,YL,False,1680854645.5671,none
157,2023-04-07_16h04.08.084,0407_04,10,14,1,p,0.4151,none,BL,False,1680854648.0841,none
158,2023-04-07_16h04.10.550,0407_04,10,15,2,w,0.3705,none,YR,False,1680854650.5508,none
159,2023-04-07_16h04.13.000,0407_04,10,16,1,p,0.3604,none,BL,False,1680854653.0006,none
160,2023-04-07_16h04.56.384,0407_04,11,1,1,p,0.3364,none,BR,False,1680854696.3846,none
161,2023-04-07_16h04.59.100,0407_04,11,2,2,w,0.3191,0.6066,YL,True,1680854699.1001,none
162,2023-04-07_16h05.01.816,0407_04,11,3,2,w,0.4182,0.598,YR,True,1680854701.8167,none
163,2023-04-07_16h05.04.550,0407_04,11,4,2,w,0.3581,0.6213,YL,True,1680854704.5506,none
164,2023-04-07_16h05.07.283,0407_04,11,5,2,w,0.3919,0.6182,YR,True,1680854707.2834,none
165,2023-04-07_16h05.09.751,0407_04,11,6,1,p,0.3629,none,BL,False,1680854709.7513,none
166,2023-04-07_16h05.12.200,0407_04,11,7,1,p,0.3449,none,BR,False,1680854712.2011,none
167,2023-04-07_16h05.14.666,0407_04,11,8,1,p,0.3663,none,BL,False,1680854714.6668,none
168,2023-04-07_16h05.17.417,0407_04,11,9,2,w,0.6387,0.5873,YR,True,1680854717.4177,none
169,2023-04-07_16h05.19.800,0407_04,11,10,1,p,0.2935,none,BL,False,1680854719.8008,none
170,2023-04-07_16h05.22.516,0407_04,11,11,2,w,0.3583,0.6059,YL,True,1680854722.5167,none
171,2023-04-07_16h05.24.984,0407_04,11,12,1,p,0.3614,none,BR,False,1680854724.9843,none
172,2023-04-07_16h05.27.717,0407_04,11,13,2,w,0.2947,0.6159,YL,True,1680854727.718,none
173,2023-04-07_16h05.30.434,0407_04,11,14,2,w,0.3454,0.5892,YR,True,1680854730.4342,none
174,2023-04-07_16h05.32.850,0407_04,11,15,1,p,0.3245,none,BL,False,1680854732.8503,none
175,2023-04-07_16h05.35.334,0407_04,11,16,1,p,0.388,none,BR,False,1680854735.3348,none
176,2023-04-07_16h06.10.683,0407_04,12,1,1,p,0.3824,none,BL,False,1680854770.684,none
177,2023-04-07_16h06.13.151,0407_04,12,2,1,p,0.3632,none,BL,False,1680854773.1519,none
178,2023-04-07_16h06.15.834,0407_04,12,3,2,w,0.4558,0.5743,YL,True,1680854775.8347,none
179,2023-04-07_16h06.18.534,0407_04,12,4,2,w,0.4126,0.5806,YL,True,1680854778.5343,none
180,2023-04-07_16h06.21.201,0407_04,12,5,2,w,0.3839,0.5511,YR,True,1680854781.2013,none
181,2023-04-07_16h06.23.634,0407_04,12,6,1,p,0.342,none,BL,False,1680854783.6343,none
182,2023-04-07_16h06.26.167,0407_04,12,7,1,p,0.4282,none,BR,False,1680854786.1679,none
183,2023-04-07_16h06.28.616,0407_04,12,8,1,p,0.3514,none,BR,False,1680854788.617,none
184,2023-04-07_16h06.31.302,0407_04,12,9,2,w,0.3897,0.5744,YL,True,1680854791.3021,none
185,2023-04-07_16h06.33.751,0407_04,12,10,1,p,0.3466,none,BL,False,1680854793.7517,none
186,2023-04-07_16h06.36.434,0407_04,12,11,2,w,0.32,0.5672,YR,True,1680854796.4345,none
187,2023-04-07_16h06.39.101,0407_04,12,12,2,w,0.3729,0.5581,YL,True,1680854799.102,none
188,2023-04-07_16h06.41.749,0407_04,12,13,2,w,0.4115,0.5497,YR,True,1680854801.7495,none
189,2023-04-07_16h06.44.434,0407_04,12,14,2,w,0.3361,0.5782,YR,True,1680854804.4345,none
190,2023-04-07_16h06.46.917,0407_04,12,15,1,p,0.3885,none,BR,False,1680854806.9174,none
191,2023-04-07_16h06.49.452,0407_04,12,16,1,p,0.4412,none,BR,False,1680854809.4523,none
192,2023-04-07_16h07.26.734,0407_04,13,1,1,p,0.3136,none,BR,False,1680854846.7342,none
193,2023-04-07_16h07.29.401,0407_04,13,2,2,w,0.3286,0.5457,YR,True,1680854849.401,none
194,2023-04-07_16h07.32.034,0407_04,13,3,2,w,0.3736,0.5242,YR,True,1680854852.0345,none
195,2023-04-07_16h07.34.683,0407_04,13,4,2,w,0.3643,0.5342,YL,True,1680854854.684,none
196,2023-04-07_16h07.37.317,0407_04,13,5,2,w,0.3387,0.5318,YL,True,1680854857.3177,none
197,2023-04-07_16h07.39.701,0407_04,13,6,1,p,0.2814,none,BR,False,1680854859.7016,none
198,2023-04-07_16h07.42.168,0407_04,13,7,1,p,0.37,none,BL,False,1680854862.1684,none
199,2023-04-07_16h07.44.634,0407_04,13,8,1,p,0.3754,none,BL,False,1680854864.6342,none
200,2023-04-07_16h07.47.084,0407_04,13,9,1,p,0.3482,none,BL,False,1680854867.0843,none
201,2023-04-07_16h07.49.500,0407_04,13,10,1,p,0.3142,none,BL,False,1680854869.5007,none
202,2023-04-07_16h07.52.167,0407_04,13,11,2,w,0.3459,0.5554,YR,True,1680854872.1676,none
203,2023-04-07_16h07.54.834,0407_04,13,12,2,w,0.2551,0.5499,YL,True,1680854874.8343,none
204,2023-04-07_16h07.57.501,0407_04,13,13,2,w,0.2686,0.5542,YR,True,1680854877.5014,none
205,2023-04-07_16h08.00.134,0407_04,13,14,2,w,0.3136,0.5219,YL,True,1680854880.1342,none
206,2023-04-07_16h08.02.717,0407_04,13,15,1,p,0.4806,none,BR,False,1680854882.7176,none
207,2023-04-07_16h08.05.234,0407_04,13,16,1,p,0.4173,none,BR,False,1680854885.2343,none
208,2023-04-07_16h08.38.700,0407_04,14,1,2,w,0.3395,0.5453,YR,True,1680854918.7009,none
209,2023-04-07_16h08.41.234,0407_04,14,2,1,p,0.4413,none,BL,False,1680854921.2346,none
210,2023-04-07_16h08.43.867,0407_04,14,3,2,w,0.3404,0.5307,YL,True,1680854923.8673,none
211,2023-04-07_16h08.46.501,0407_04,14,4,2,w,0.3152,0.5247,YR,True,1680854926.5013,none
212,2023-04-07_16h08.48.968,0407_04,14,5,1,p,0.3619,none,BR,False,1680854928.9682,none
213,2023-04-07_16h08.51.501,0407_04,14,6,1,p,0.4306,none,BL,False,1680854931.5015,none
214,2023-04-07_16h08.54.134,0407_04,14,7,2,w,0.3856,0.5234,YL,True,1680854934.134,none
215,2023-04-07_16h08.56.583,0407_04,14,8,1,p,0.3525,none,BL,False,1680854936.5839,none
216,2023-04-07_16h08.59.101,0407_04,14,9,1,p,0.4224,none,BL,False,1680854939.1013,none
217,2023-04-07_16h09.01.718,0407_04,14,10,2,w,0.3052,0.5039,YR,True,1680854941.7181,none
218,2023-04-07_16h09.04.334,0407_04,14,11,2,w,0.4168,0.5086,YR,True,1680854944.3346,none
219,2023-04-07_16h09.06.785,0407_04,14,12,1,p,0.3603,none,BR,False,1680854946.7853,none
220,2023-04-07_16h09.09.301,0407_04,14,13,1,p,0.4144,none,BR,False,1680854949.3012,none
221,2023-04-07_16h09.11.900,0407_04,14,14,2,w,0.474,0.49,YL,True,1680854951.9008,none
222,2023-04-07_16h09.14.335,0407_04,14,15,1,p,0.3296,none,BR,False,1680854954.3355,none
223,2023-04-07_16h09.16.951,0407_04,14,16,2,w,0.3923,0.5129,YL,True,1680854956.9514,none
224,2023-04-07_16h09.49.700,0407_04,15,1,2,w,0.5725,none,YR,False,1680854989.7008,none
225,2023-04-07_16h09.52.234,0407_04,15,2,2,w,0.4335,none,YL,False,1680854992.2345,none
226,2023-04-07_16h09.54.651,0407_04,15,3,2,w,0.3158,none,YL,False,1680854994.6516,none
227,2023-04-07_16h09.57.068,0407_04,15,4,2,w,0.3156,none,YR,False,1680854997.0682,none
228,2023-04-07_16h09.59.519,0407_04,15,5,1,p,0.3546,none,BR,False,1680854999.519,none
229,2023-04-07_16h10.02.068,0407_04,15,6,2,w,0.4487,none,YL,False,1680855002.0687,none
230,2023-04-07_16h10.04.618,0407_04,15,7,1,p,0.458,none,BL,False,1680855004.6185,none
231,2023-04-07_16h10.07.134,0407_04,15,8,1,p,0.4126,none,BR,False,1680855007.1344,none
232,2023-04-07_16h10.09.585,0407_04,15,9,1,p,0.3442,none,BR,False,1680855009.586,none
233,2023-04-07_16h10.12.068,0407_04,15,10,1,p,0.3899,none,BL,False,1680855012.0687,none
234,2023-04-07_16h10.14.551,0407_04,15,11,1,p,0.3785,none,BL,False,1680855014.5519,none
235,2023-04-07_16h10.17.036,0407_04,15,12,1,p,0.3918,none,BL,False,1680855017.036,none
236,2023-04-07_16h10.19.518,0407_04,15,13,2,w,0.3878,none,YL,False,1680855019.519,none
237,2023-04-07_16h10.22.018,0407_04,15,14,2,w,0.4081,none,YR,False,1680855022.0185,none
238,2023-04-07_16h10.24.485,0407_04,15,15,2,w,0.3728,none,YR,False,1680855024.4853,none
239,2023-04-07_16h10.27.051,0407_04,15,16,1,p,0.4664,none,BR,False,1680855027.0516,none
240,2023-04-07_16h11.09.485,0407_04,16,1,1,p,0.3485,none,BR,False,1680855069.4854,none
241,2023-04-07_16h11.11.934,0407_04,16,2,1,p,0.3459,none,BR,False,1680855071.9345,none
242,2023-04-07_16h11.14.269,0407_04,16,3,1,p,0.2401,none,BR,False,1680855074.2692,none
243,2023-04-07_16h11.16.852,0407_04,16,4,2,w,0.466,0.4639,YR,True,1680855076.8524,none
244,2023-04-07_16h11.19.218,0407_04,16,5,1,p,0.2672,none,BR,False,1680855079.2189,none
245,2023-04-07_16h11.21.833,0407_04,16,6,2,w,0.3651,0.5011,YL,True,1680855081.8333,none
246,2023-04-07_16h11.24.434,0407_04,16,7,2,w,0.3319,0.4834,YR,True,1680855084.4348,none
247,2023-04-07_16h11.27.035,0407_04,16,8,2,w,0.3396,0.4855,YR,True,1680855087.0353,none
248,2023-04-07_16h11.29.667,0407_04,16,9,2,w,0.3557,0.5194,YL,True,1680855089.668,none
249,2023-04-07_16h11.32.184,0407_04,16,10,1,p,0.4187,none,BL,False,1680855092.1846,none
250,2023-04-07_16h11.34.751,0407_04,16,11,2,w,0.3494,0.4585,YR,True,1680855094.7512,none
251,2023-04-07_16h11.37.335,0407_04,16,12,2,w,0.3672,0.4621,YL,True,1680855097.3353,none
252,2023-04-07_16h11.39.752,0407_04,16,13,1,p,0.3275,none,BL,False,1680855099.7528,none
253,2023-04-07_16h11.42.219,0407_04,16,14,1,p,0.3753,none,BL,False,1680855102.2195,none
254,2023-04-07_16h11.44.835,0407_04,16,15,2,w,0.4853,0.5061,YL,True,1680855104.8352,none
255,2023-04-07_16h11.47.267,0407_04,16,16,1,p,0.3323,none,BL,False,1680855107.2679,none
256,2023-04-07_16h12.23.985,0407_04,17,1,2,w,0.3318,0.4333,YL,True,1680855143.9853,none
257,2023-04-07_16h12.26.585,0407_04,17,2,2,w,0.3494,0.4791,YL,True,1680855146.5858,none
258,2023-04-07_16h12.29.151,0407_04,17,3,2,w,0.3174,0.4493,YR,True,1680855149.1514,none
259,2023-04-07_16h12.31.519,0407_04,17,4,1,p,0.271,none,BR,False,1680855151.5194,none
260,2023-04-07_16h12.34.018,0407_04,17,5,1,p,0.4081,none,BL,False,1680855154.0183,none
261,2023-04-07_16h12.36.469,0407_04,17,6,1,p,0.3485,none,BR,False,1680855156.4691,none
262,2023-04-07_16h12.38.952,0407_04,17,7,1,p,0.3783,none,BR,False,1680855158.9523,none
263,2023-04-07_16h12.41.502,0407_04,17,8,2,w,0.3903,0.4411,YR,True,1680855161.502,none
264,2023-04-07_16h12.43.934,0407_04,17,9,1,p,0.3283,none,BR,False,1680855163.9349,none
265,2023-04-07_16h12.46.452,0407_04,17,10,1,p,0.4237,none,BL,False,1680855166.4522,none
266,2023-04-07_16h12.49.051,0407_04,17,11,2,w,0.3629,0.4781,YL,True,1680855169.0517,none
267,2023-04-07_16h12.51.535,0407_04,17,12,1,p,0.3867,none,BL,False,1680855171.5359,none
268,2023-04-07_16h12.54.101,0407_04,17,13,2,w,0.3276,0.4539,YR,True,1680855174.1014,none
269,2023-04-07_16h12.56.669,0407_04,17,14,2,w,0.353,0.4586,YL,True,1680855176.669,none
270,2023-04-07_16h12.59.218,0407_04,17,15,2,w,0.3703,0.4318,YR,True,1680855179.2186,none
271,2023-04-07_16h13.01.635,0407_04,17,16,1,p,0.3237,none,BL,False,1680855181.6357,none
272,2023-04-07_16h13.38.803,0407_04,18,1,1,p,0.3922,none,BR,False,1680855218.8031,none
273,2023-04-07_16h13.41.335,0407_04,18,2,1,p,0.4371,none,BL,False,1680855221.3355,none
274,2023-04-07_16h13.43.885,0407_04,18,3,2,w,0.3356,0.431,YR,True,1680855223.8854,none
275,2023-04-07_16h13.46.502,0407_04,18,4,2,w,0.4998,0.462,YR,True,1680855226.5026,none
276,2023-04-07_16h13.48.935,0407_04,18,5,1,p,0.3294,none,BR,False,1680855228.9359,none
277,2023-04-07_16h13.51.502,0407_04,18,6,2,w,0.4615,0.4572,YL,True,1680855231.5023,none
278,2023-04-07_16h13.54.035,0407_04,18,7,2,w,0.3367,0.4227,YR,True,1680855234.0354,none
279,2023-04-07_16h13.56.502,0407_04,18,8,1,p,0.371,none,BR,False,1680855236.5027,none
280,2023-04-07_16h13.59.019,0407_04,18,9,2,w,0.3844,0.404,YL,True,1680855239.0195,none
281,2023-04-07_16h14.01.518,0407_04,18,10,1,p,0.3961,none,BL,False,1680855241.5181,none
282,2023-04-07_16h14.04.051,0407_04,18,11,2,w,0.3442,0.4319,YR,True,1680855244.0515,none
283,2023-04-07_16h14.06.668,0407_04,18,12,2,w,0.504,0.4318,YL,True,1680855246.6688,none
284,2023-04-07_16h14.09.201,0407_04,18,13,2,w,0.3693,0.4172,YL,True,1680855249.2019,none
285,2023-04-07_16h14.11.769,0407_04,18,14,1,p,0.4686,none,BL,False,1680855251.7698,none
286,2023-04-07_16h14.14.401,0407_04,18,15,1,p,0.534,none,BL,False,1680855254.4018,none
287,2023-04-07_16h14.16.835,0407_04,18,16,1,p,0.341,none,BR,False,1680855256.8351,none
288,2023-04-07_16h14.50.219,0407_04,19,1,1,p,0.3494,none,BL,False,1680855290.2193,none
289,2023-04-07_16h14.52.769,0407_04,19,2,2,w,0.3401,0.4352,YR,True,1680855292.7695,none
290,2023-04-07_16h14.55.285,0407_04,19,3,2,w,0.35,0.3947,YR,True,1680855295.2855,none
291,2023-04-07_16h14.57.718,0407_04,19,4,1,p,0.3293,none,BR,False,1680855297.7186,none
292,2023-04-07_16h15.00.235,0407_04,19,5,2,w,0.328,0.3944,YL,True,1680855300.2356,none
293,2023-04-07_16h15.02.685,0407_04,19,6,1,p,0.3546,none,BL,False,1680855302.6856,none
294,2023-04-07_16h15.05.186,0407_04,19,7,2,w,0.3055,0.3889,YL,True,1680855305.1863,none
295,2023-04-07_16h15.07.635,0407_04,19,8,1,p,0.3577,none,BL,False,1680855307.6355,none
296,2023-04-07_16h15.10.135,0407_04,19,9,2,w,0.3471,0.3768,YL,True,1680855310.1358,none
297,2023-04-07_16h15.12.535,0407_04,19,10,1,p,0.295,none,BR,False,1680855312.5357,none
298,2023-04-07_16h15.14.969,0407_04,19,11,1,p,0.3352,none,BR,False,1680855314.9699,none
299,2023-04-07_16h15.17.386,0407_04,19,12,1,p,0.3176,none,BL,False,1680855317.3862,none
300,2023-04-07_16h15.19.835,0407_04,19,13,1,p,0.3574,none,BR,False,1680855319.8359,none
301,2023-04-07_16h15.22.318,0407_04,19,14,2,w,0.331,0.3594,YR,True,1680855322.3189,none
302,2023-04-07_16h15.24.834,0407_04,19,15,2,w,0.2887,0.4169,YL,True,1680855324.8347,none
303,2023-04-07_16h15.27.368,0407_04,19,16,2,w,0.3951,0.4123,YR,True,1680855327.3687,none
304,2023-04-07_16h16.02.803,0407_04,20,1,1,p,0.4413,none,BR,False,1680855362.8034,none
305,2023-04-07_16h16.05.285,0407_04,20,2,2,w,0.3685,0.3663,YR,True,1680855365.2856,none
306,2023-04-07_16h16.07.753,0407_04,20,3,2,w,0.3704,0.3606,YR,True,1680855367.7531,none
307,2023-04-07_16h16.10.269,0407_04,20,4,2,w,0.2862,0.4047,YL,True,1680855370.2692,none
308,2023-04-07_16h16.12.769,0407_04,20,5,1,p,0.4097,none,BL,False,1680855372.7694,none
309,2023-04-07_16h16.15.269,0407_04,20,6,1,p,0.4054,none,BL,False,1680855375.2694,none
310,2023-04-07_16h16.17.752,0407_04,20,7,1,p,0.3857,none,BR,False,1680855377.7528,none
311,2023-04-07_16h16.20.253,0407_04,20,8,1,p,0.4056,none,BL,False,1680855380.2532,none
312,2023-04-07_16h16.22.719,0407_04,20,9,2,w,0.3305,0.3495,YR,True,1680855382.7199,none
313,2023-04-07_16h16.25.236,0407_04,20,10,2,w,0.4103,0.3365,YR,True,1680855385.2365,none
314,2023-04-07_16h16.27.735,0407_04,20,11,1,p,0.403,none,BL,False,1680855387.7357,none
315,2023-04-07_16h16.30.286,0407_04,20,12,1,p,0.4466,none,BR,False,1680855390.2864,none
316,2023-04-07_16h16.32.752,0407_04,20,13,1,p,0.3612,none,BR,False,1680855392.7528,none
317,2023-04-07_16h16.35.519,0407_04,20,14,2,w,0.6449,0.4157,YL,True,1680855395.5195,none
318,2023-04-07_16h16.38.036,0407_04,20,15,2,w,0.3435,0.4093,YL,True,1680855398.0364,none
319,2023-04-07_16h16.40.503,0407_04,20,16,2,w,0.3152,0.357,YL,True,1680855400.5031,none
